Session,Subject,Id,Date,Time,Group,GroupN,PGGCondition1,ThresholdReached,FinalPayoff,SVOAngle,PercColl,Round,Contribution,Contribution1,DecisionTime,Endowment,SumContributed,PGGCondition2,SumContributed1,SumContributed2,SumContributed3,SumContributed4,SumContributed5,SumContributed6,SumContributed7,SumContributed8,SumContributed9,SumContributed10,DecisionTime1,Endowment1,Contribution2,DecisionTime2,Endowment2,Contribution3,DecisionTime3,Endowment3,Contribution4,DecisionTime4,Endowment4,Contribution5,DecisionTime5,Endowment5,Contribution6,DecisionTime6,Endowment6,Contribution7,DecisionTime7,Endowment7,Contribution8,DecisionTime8,Endowment8,Contribution9,DecisionTime9,Endowment9,Contribution10,DecisionTime10,ExtraProfit,ATCondition,SVOself1,SVOself2,SVOself3,SVOself4,SVOself5,SVOself6,SVOself7,SVOself8,SVOself9,SVOself10,SVOself11,SVOself12,SVOself13,SVOself14,SVOself15,SVOother1,SVOother2,SVOother3,SVOother4,SVOother5,SVOother6,SVOother7,SVOother8,SVOother9,SVOother10,SVOother11,SVOother12,SVOother13,SVOother14,SVOother15,SVOChoOp1,SVOChoOp2,SVOChoOp3,SVOChoOp4,SVOChoOp5,SVOChoOp6,SVOChoOp7,SVOChoOp8,SVOChoOp9,SVOChoOp10,SVOChoOp11,SVOChoOp12,SVOChoOp13,SVOChoOp14,SVOChoOp15,SVODecisionTime,SVOMeanSelf,SVOMeanOther,ATself1,ATself2,ATself3,ATself4,ATself5,ATself6,ATself7,ATself8,ATself9,ATself10,ATself11,ATself12,ATself13,ATself14,ATself15,ATself16,ATself17,ATself18,ATself19,ATself20,ATself21,ATself22,ATself23,ATself24,ATself25,ATother1,ATother2,ATother3,ATother4,ATother5,ATother6,ATother7,ATother8,ATother9,ATother10,ATother11,ATother12,ATother13,ATother14,ATother15,ATother16,ATother17,ATother18,ATother19,ATother20,ATother21,ATother22,ATother23,ATother24,ATother25,ATdiff1,Atdiff2,ATdiff3,ATdiff4,ATdiff5,ATdiff6,ATdiff7,ATdiff8,ATdiff9,ATdiff10,ATdiff11,ATdiff12,ATdiff13,ATdiff14,ATdiff15,ATdiff16,ATdiff17,ATdiff18,ATdiff19,ATdiff20,ATdiff21,ATdiff22,ATdiff23,ATdiff24,ATdiff25,ATjoint1,Atjoint2,ATjoint3,ATjoint4,ATjoint5,ATjoint6,ATjoint7,ATjoint8,ATjoint9,ATjoint10,ATjoint11,ATjoint12,ATjoint13,ATjoint14,ATjoint15,ATjoint16,ATjoint17,ATjoint18,ATjoint19,ATjoint20,ATjoint21,ATjoint22,ATjoint23,ATjoint24,ATjoint25,ATChoOp1,ATChoOp2,ATChoOp3,ATChoOp4,ATChoOp5,ATChoOp6,ATChoOp7,ATChoOp8,ATChoOp9,ATChoOp10,ATChoOp11,ATChoOp12,ATChoOp13,ATChoOp14,ATChoOp15,ATChoOp16,ATChoOp17,ATChoOp18,ATChoOp19,ATChoOp20,ATChoOp21,ATChoOp22,ATChoOp23,ATChoOp24,ATChoOp25,TimeAT,ATMeanSelf,ATMeanOther,ATMeanDiff,ATMeanJoint,ETHNICITY,HUKOU,HIGHSCHOOL,FAJO,MOJO,FAMMEM,BROSIS,BACDE,HOUSES,ROOMS,CARS,DIVORCE,LEFTBEHIND,RELIGION,GOVERNMENT,SPORTS,CULTURE,WECHATFR,QQFR,TELFR,E1,A1,C1,ES1,O1,E2,A2,C2,ES2,O2,EXP,IND1,HC1,HI1,VC1,VI1,IND2,HC2,VC2,HI2,VI2,IND3,HC3,VC3,HI3,VI3,IND4,HC4,VC4,HI4,VI4,IND5,HC5,VC5,HI5,VI5,IND6,HC6,VC6,HI6,VI6,IND7,HC7,VC7,HI7,VI7,IND8,VI8,HC8,VC8,HI8,IND9,VC9,HI9,VI9,HC9,IND10,VC10,VI10,HC10,HI10,IND11,VC11,HI11,VI11,HC11,IND12,VC12,HI12,VI12,HC12,IND13,HI13,VC13,VI13,HC13,IND14,VC14,HI14,VI14,HC14,IND15,VC15,HI15,VI15,HC15,IND16,VC16,HI16,VI16,HC16,OwnContributionSUM,HC,VC,HI,VI,Test, PercentageHC , PercentageVC , PercentageHI , PercentageVI ,PercInd
1,4,1,05/29/2015,13:30:00,4,1,1,2,,34.88,81.25,1,2,2,0.0,38.0,12,2.0,12.0,25.0,37.0,46.0,60.0,72.0,82.0,93.0,102.0,108.0,0.0,38.0,4.0,0.0,34.0,3.0,0.0,31.0,3.0,0.0,28.0,4.0,0.0,24.0,2.0,0.0,22.0,2.0,0.0,20.0,4.0,0.0,16.0,3.0,0.0,13.0,3.0,,29.642857142857142,2.0,85.0,100.0,85.0,68.0,75.0,85.0,81.0,95.0,81.0,93.0,85.0,94.0,75.0,93.0,91.0,85.0,50.0,85.0,58.0,75.0,85.0,81.0,95.0,81.0,93.0,85.0,91.0,75.0,93.0,94.0,1.0,9.0,9.0,5.0,5.0,9.0,6.0,5.0,4.0,7.0,5.0,8.0,5.0,3.0,2.0,-120.0,83.0,73.0,61.0,45.0,78.0,22.0,52.0,67.0,75.0,38.0,53.0,48.0,93.0,73.0,30.0,27.0,22.0,24.0,31.0,41.0,31.0,90.0,65.0,75.0,33.0,26.0,22.0,45.0,40.0,38.0,95.0,94.0,44.0,28.0,94.0,39.0,49.0,11.0,41.0,49.0,75.0,99.0,57.0,52.0,77.0,88.0,48.0,90.0,99.0,40.0,41.0,39.0,75.0,5.0,44.0,73.0,42.0,53.0,67.0,56.0,52.0,39.0,82.0,32.0,47.0,58.0,77.0,32.0,76.0,48.0,57.0,42.0,25.0,24.0,50.0,53.0,17.0,107.0,85.0,116.0,117.0,146.0,110.0,103.0,132.0,92.0,97.0,104.0,114.0,79.0,102.0,121.0,81.0,84.0,117.0,119.0,138.0,155.0,174.0,73.0,67.0,61.0,2.0,1.0,2.0,1.0,1.0,2.0,2.0,1.0,2.0,2.0,1.0,2.0,2.0,2.0,1.0,2.0,2.0,2.0,1.0,1.0,2.0,1.0,2.0,2.0,1.0,-144.0,,,,,1.0,1.0,1.0,4.0,7.0,4.0,1.0,4.0,2.0,7.0,2.0,2.0,2.0,3.0,1.0,1.0,3.0,5.0,8.0,10.0,8.0,4.0,7.0,6.0,6.0,5.0,9.0,7.0,8.0,6.0,???,1.0,1.0,0.0,0.0,0.0,1.0,1.0,0.0,0.0,0.0,1.0,1.0,0.0,0.0,0.0,1.0,1.0,0.0,0.0,0.0,1.0,1.0,0.0,0.0,0.0,1.0,1.0,0.0,0.0,0.0,1.0,1.0,0.0,0.0,0.0,4.0,1.0,0.0,0.0,0.0,2.0,1.0,0.0,0.0,0.0,1.0,0.0,0.0,1.0,0.0,1.0,0.0,0.0,0.0,1.0,1.0,0.0,0.0,0.0,1.0,3.0,1.0,0.0,0.0,0.0,3.0,0.0,1.0,0.0,0.0,1.0,0.0,0.0,0.0,1.0,2.0,1.0,0.0,0.0,0.0,,11.0,2.0,2.0,1.0,16.0,68.75, 12.50 ,12.5, 6.25 ,18.75
1,11,2,05/29/2015,13:30:00,4,1,1,2,,2.39,75.0,1,3,3,0.0,37.0,12,2.0,12.0,25.0,37.0,46.0,60.0,72.0,82.0,93.0,102.0,105.0,0.0,37.0,2.0,0.0,35.0,4.0,0.0,31.0,2.0,0.0,29.0,2.0,0.0,27.0,1.0,0.0,26.0,1.0,0.0,25.0,1.0,0.0,24.0,2.0,0.0,22.0,2.0,,29.642857142857142,2.0,85.0,100.0,85.0,68.0,88.0,91.0,89.0,100.0,88.0,98.0,96.0,100.0,88.0,100.0,95.0,68.0,50.0,85.0,58.0,63.0,72.0,69.0,90.0,78.0,78.0,74.0,90.0,63.0,90.0,75.0,3.0,9.0,9.0,5.0,3.0,6.0,4.0,9.0,3.0,3.0,8.0,9.0,7.0,1.0,5.0,-115.0,86.0,66.0,90.0,45.0,88.0,22.0,52.0,86.0,75.0,38.0,62.0,48.0,93.0,73.0,30.0,27.0,22.0,24.0,31.0,41.0,34.0,90.0,65.0,75.0,33.0,26.0,28.0,22.0,40.0,25.0,95.0,94.0,29.0,28.0,94.0,13.0,49.0,11.0,41.0,49.0,75.0,99.0,57.0,52.0,77.0,60.0,48.0,90.0,99.0,40.0,41.0,58.0,68.0,5.0,63.0,73.0,42.0,57.0,67.0,56.0,49.0,39.0,82.0,32.0,47.0,58.0,77.0,32.0,76.0,48.0,50.0,42.0,25.0,24.0,50.0,53.0,30.0,112.0,85.0,113.0,117.0,146.0,115.0,103.0,132.0,75.0,97.0,104.0,114.0,79.0,102.0,121.0,81.0,84.0,117.0,94.0,138.0,155.0,174.0,73.0,67.0,85.0,1.0,1.0,1.0,1.0,1.0,1.0,2.0,1.0,1.0,2.0,1.0,2.0,2.0,2.0,1.0,2.0,2.0,2.0,2.0,1.0,2.0,1.0,2.0,2.0,2.0,-102.0,,,,,1.0,1.0,1.0,5.0,5.0,6.0,1.0,4.0,2.0,8.0,1.0,2.0,2.0,4.0,2.0,2.0,2.0,7.0,10.0,5.0,7.0,5.0,5.0,6.0,6.0,2.0,7.0,5.0,1.0,2.0,???,1.0,1.0,0.0,0.0,0.0,1.0,1.0,0.0,0.0,0.0,1.0,1.0,0.0,0.0,0.0,1.0,1.0,0.0,0.0,0.0,1.0,1.0,0.0,0.0,0.0,3.0,0.0,0.0,1.0,0.0,1.0,1.0,0.0,0.0,0.0,4.0,1.0,0.0,0.0,0.0,1.0,0.0,0.0,0.0,1.0,1.0,0.0,0.0,1.0,0.0,1.0,0.0,0.0,0.0,1.0,1.0,0.0,0.0,0.0,1.0,3.0,1.0,0.0,0.0,0.0,3.0,0.0,1.0,0.0,0.0,1.0,0.0,0.0,0.0,1.0,2.0,1.0,0.0,0.0,0.0,,11.0,1.0,3.0,1.0,16.0,68.75, 6.25 ,18.75, 6.25 ,25.0
1,18,3,05/29/2015,13:30:00,4,1,1,2,,37.48,68.75,1,2,2,0.0,38.0,12,2.0,12.0,25.0,37.0,46.0,60.0,72.0,82.0,93.0,102.0,117.0,0.0,38.0,2.0,0.0,36.0,0.0,0.0,36.0,0.0,0.0,36.0,4.0,0.0,32.0,2.0,0.0,30.0,2.0,0.0,28.0,2.0,0.0,26.0,1.0,0.0,25.0,3.0,,29.642857142857142,2.0,85.0,100.0,85.0,63.0,75.0,85.0,81.0,90.0,81.0,93.0,85.0,100.0,75.0,100.0,91.0,85.0,50.0,85.0,68.0,75.0,85.0,81.0,100.0,81.0,93.0,85.0,90.0,75.0,90.0,94.0,1.0,9.0,9.0,4.0,5.0,9.0,6.0,1.0,4.0,7.0,5.0,9.0,5.0,1.0,2.0,-132.0,82.0,75.0,61.0,34.0,78.0,19.0,51.0,67.0,75.0,38.0,53.0,48.0,71.0,73.0,11.0,27.0,38.0,24.0,31.0,41.0,34.0,90.0,65.0,79.0,33.0,8.0,28.0,45.0,46.0,38.0,83.0,92.0,44.0,28.0,94.0,39.0,49.0,25.0,41.0,61.0,75.0,68.0,57.0,52.0,77.0,60.0,47.0,90.0,80.0,40.0,59.0,58.0,75.0,19.0,44.0,65.0,41.0,53.0,67.0,56.0,52.0,39.0,63.0,32.0,50.0,58.0,73.0,32.0,76.0,48.0,50.0,43.0,25.0,31.0,50.0,51.0,30.0,107.0,79.0,116.0,102.0,143.0,110.0,103.0,132.0,92.0,97.0,97.0,114.0,72.0,102.0,105.0,81.0,84.0,117.0,94.0,138.0,155.0,160.0,73.0,67.0,85.0,2.0,2.0,2.0,2.0,2.0,2.0,2.0,1.0,2.0,2.0,2.0,2.0,1.0,2.0,2.0,2.0,2.0,2.0,2.0,2.0,2.0,2.0,2.0,1.0,2.0,-162.0,,,,,1.0,1.0,1.0,5.0,5.0,3.0,0.0,2.0,1.0,6.0,1.0,2.0,2.0,3.0,1.0,2.0,1.0,5.0,6.0,4.0,1.0,1.0,6.0,6.0,6.0,8.0,9.0,6.0,10.0,6.0,???,3.0,0.0,1.0,0.0,0.0,3.0,0.0,0.0,1.0,0.0,3.0,0.0,0.0,1.0,0.0,1.0,1.0,0.0,0.0,0.0,1.0,1.0,0.0,0.0,0.0,1.0,1.0,0.0,0.0,0.0,2.0,0.0,1.0,0.0,0.0,1.0,0.0,1.0,0.0,0.0,1.0,0.0,0.0,0.0,1.0,1.0,0.0,0.0,1.0,0.0,1.0,0.0,0.0,0.0,1.0,1.0,0.0,0.0,0.0,1.0,3.0,1.0,0.0,0.0,0.0,1.0,0.0,0.0,0.0,1.0,1.0,0.0,0.0,0.0,1.0,3.0,0.0,1.0,0.0,0.0,,10.0,1.0,5.0,0.0,16.0,62.5, 6.25 ,31.25, -   ,31.25
1,25,4,05/29/2015,13:30:00,4,1,1,2,,78.15,43.75,1,2,2,0.0,38.0,12,2.0,12.0,25.0,37.0,46.0,60.0,72.0,82.0,93.0,102.0,114.0,0.0,38.0,2.0,0.0,36.0,2.0,0.0,34.0,2.0,0.0,32.0,2.0,0.0,30.0,2.0,0.0,28.0,2.0,0.0,26.0,0.0,0.0,26.0,2.0,0.0,24.0,4.0,,29.642857142857142,2.0,85.0,100.0,85.0,85.0,100.0,100.0,100.0,100.0,100.0,100.0,100.0,100.0,100.0,100.0,100.0,85.0,50.0,85.0,15.0,50.0,50.0,50.0,90.0,70.0,70.0,70.0,90.0,50.0,90.0,50.0,1.0,9.0,9.0,9.0,1.0,1.0,1.0,9.0,1.0,1.0,9.0,9.0,9.0,1.0,9.0,-115.0,,56.0,90.0,45.0,88.0,22.0,52.0,86.0,93.0,31.0,62.0,53.0,93.0,73.0,30.0,27.0,38.0,24.0,31.0,41.0,34.0,90.0,65.0,79.0,33.0,26.0,28.0,22.0,40.0,25.0,95.0,94.0,29.0,8.0,74.0,13.0,25.0,11.0,41.0,49.0,75.0,68.0,57.0,52.0,77.0,60.0,48.0,90.0,80.0,40.0,41.0,58.0,68.0,5.0,63.0,73.0,42.0,57.0,85.0,43.0,49.0,28.0,82.0,32.0,47.0,58.0,73.0,32.0,76.0,48.0,50.0,42.0,25.0,31.0,50.0,53.0,30.0,112.0,85.0,113.0,117.0,146.0,115.0,101.0,105.0,75.0,78.0,104.0,114.0,79.0,102.0,105.0,81.0,84.0,117.0,94.0,138.0,155.0,160.0,73.0,67.0,85.0,1.0,1.0,1.0,1.0,1.0,1.0,1.0,2.0,1.0,1.0,1.0,2.0,2.0,2.0,2.0,2.0,2.0,2.0,2.0,1.0,2.0,2.0,2.0,2.0,2.0,-146.0,,,,,1.0,1.0,1.0,2.0,2.0,3.0,0.0,1.0,2.0,12.0,1.0,2.0,2.0,3.0,1.0,2.0,1.0,4.0,10.0,5.0,8.0,8.0,6.0,8.0,8.0,6.0,8.0,8.0,5.0,7.0,???,3.0,0.0,1.0,0.0,0.0,2.0,0.0,1.0,0.0,0.0,3.0,0.0,0.0,1.0,0.0,2.0,0.0,1.0,0.0,0.0,1.0,1.0,0.0,0.0,0.0,3.0,0.0,0.0,1.0,0.0,4.0,0.0,0.0,0.0,1.0,4.0,1.0,0.0,0.0,0.0,2.0,1.0,0.0,0.0,0.0,3.0,0.0,0.0,0.0,1.0,1.0,0.0,0.0,0.0,1.0,1.0,0.0,0.0,0.0,1.0,3.0,1.0,0.0,0.0,0.0,3.0,0.0,1.0,0.0,0.0,1.0,0.0,0.0,0.0,1.0,3.0,0.0,1.0,0.0,0.0,,4.0,3.0,7.0,2.0,16.0,25.0, 18.75 ,43.75, 12.50 ,56.25
1,32,5,05/29/2015,13:30:00,4,1,1,2,,37.48,50.0,1,1,1,0.0,39.0,12,2.0,12.0,25.0,37.0,46.0,60.0,72.0,82.0,93.0,102.0,103.0,0.0,39.0,1.0,0.0,38.0,2.0,0.0,36.0,2.0,0.0,34.0,2.0,0.0,32.0,3.0,0.0,29.0,1.0,0.0,28.0,2.0,0.0,26.0,1.0,0.0,25.0,1.0,,29.642857142857142,2.0,85.0,100.0,85.0,63.0,75.0,85.0,81.0,95.0,81.0,93.0,85.0,88.0,75.0,93.0,93.0,85.0,50.0,85.0,68.0,75.0,85.0,81.0,95.0,81.0,93.0,85.0,93.0,75.0,93.0,88.0,1.0,9.0,9.0,4.0,5.0,9.0,6.0,5.0,4.0,7.0,5.0,7.0,5.0,3.0,3.0,-173.0,82.0,75.0,90.0,45.0,78.0,22.0,52.0,67.0,75.0,31.0,53.0,48.0,93.0,73.0,30.0,27.0,38.0,24.0,31.0,41.0,34.0,90.0,65.0,79.0,33.0,26.0,28.0,22.0,40.0,38.0,95.0,94.0,44.0,28.0,74.0,39.0,49.0,11.0,41.0,49.0,75.0,68.0,57.0,52.0,77.0,60.0,48.0,90.0,80.0,40.0,41.0,58.0,68.0,5.0,44.0,73.0,42.0,53.0,67.0,43.0,52.0,39.0,82.0,32.0,47.0,58.0,73.0,32.0,76.0,48.0,50.0,42.0,25.0,31.0,50.0,53.0,30.0,112.0,85.0,116.0,117.0,146.0,110.0,103.0,105.0,92.0,97.0,104.0,114.0,79.0,102.0,105.0,81.0,84.0,117.0,94.0,138.0,155.0,160.0,73.0,67.0,85.0,1.0,1.0,2.0,1.0,1.0,2.0,2.0,2.0,2.0,2.0,1.0,2.0,2.0,2.0,2.0,2.0,2.0,2.0,2.0,1.0,2.0,2.0,2.0,2.0,2.0,-87.0,,,,,1.0,1.0,1.0,5.0,1.0,3.0,0.0,3.0,2.0,6.0,1.0,2.0,2.0,3.0,1.0,2.0,1.0,4.0,6.0,6.0,6.0,4.0,6.0,4.0,8.0,8.0,6.0,6.0,6.0,4.0,???,3.0,0.0,1.0,0.0,0.0,4.0,0.0,0.0,0.0,1.0,4.0,0.0,0.0,0.0,1.0,1.0,1.0,0.0,0.0,0.0,1.0,1.0,0.0,0.0,0.0,1.0,1.0,0.0,0.0,0.0,1.0,1.0,0.0,0.0,0.0,3.0,0.0,0.0,0.0,1.0,2.0,1.0,0.0,0.0,0.0,4.0,0.0,1.0,0.0,0.0,1.0,0.0,0.0,0.0,1.0,4.0,0.0,0.0,1.0,0.0,2.0,0.0,1.0,0.0,0.0,3.0,0.0,1.0,0.0,0.0,1.0,0.0,0.0,0.0,1.0,3.0,0.0,1.0,0.0,0.0,,6.0,2.0,4.0,4.0,16.0,37.5, 12.50 ,25.0, 25.00 ,50.0
1,39,6,05/29/2015,13:30:00,4,1,1,2,,12.5,37.5,1,2,2,0.0,38.0,12,2.0,12.0,25.0,37.0,46.0,60.0,72.0,82.0,93.0,102.0,110.0,0.0,38.0,2.0,0.0,36.0,1.0,0.0,35.0,0.0,0.0,35.0,0.0,0.0,35.0,2.0,0.0,33.0,2.0,0.0,31.0,2.0,0.0,29.0,0.0,0.0,29.0,2.0,,29.642857142857142,2.0,85.0,100.0,85.0,85.0,75.0,100.0,81.0,96.0,81.0,94.0,85.0,88.0,75.0,93.0,91.0,76.0,50.0,85.0,15.0,75.0,50.0,81.0,94.0,81.0,89.0,85.0,93.0,75.0,93.0,94.0,2.0,9.0,9.0,9.0,5.0,1.0,6.0,6.0,4.0,6.0,5.0,7.0,5.0,3.0,2.0,-374.0,88.0,,90.0,45.0,78.0,22.0,52.0,67.0,93.0,31.0,53.0,48.0,71.0,73.0,30.0,27.0,22.0,24.0,31.0,41.0,31.0,90.0,65.0,79.0,33.0,26.0,28.0,22.0,40.0,38.0,95.0,94.0,44.0,8.0,74.0,39.0,49.0,25.0,41.0,49.0,75.0,99.0,57.0,52.0,77.0,88.0,48.0,90.0,80.0,40.0,41.0,58.0,68.0,5.0,44.0,73.0,42.0,53.0,85.0,43.0,52.0,39.0,63.0,32.0,47.0,58.0,77.0,32.0,76.0,48.0,57.0,42.0,25.0,31.0,50.0,53.0,30.0,112.0,85.0,116.0,117.0,146.0,110.0,101.0,105.0,92.0,97.0,97.0,114.0,79.0,102.0,121.0,81.0,84.0,117.0,119.0,138.0,155.0,160.0,73.0,67.0,85.0,1.0,1.0,2.0,1.0,1.0,2.0,1.0,2.0,2.0,2.0,2.0,2.0,2.0,2.0,1.0,2.0,2.0,2.0,1.0,1.0,2.0,2.0,2.0,2.0,2.0,-278.0,,,,,1.0,2.0,1.0,5.0,7.0,7.0,2.0,4.0,2.0,14.0,2.0,1.0,1.0,3.0,3.0,2.0,2.0,4.0,6.0,4.0,7.0,8.0,4.0,5.0,9.0,2.0,5.0,9.0,8.0,4.0,???,4.0,0.0,0.0,0.0,1.0,4.0,0.0,0.0,0.0,1.0,3.0,0.0,0.0,1.0,0.0,1.0,1.0,0.0,0.0,0.0,1.0,1.0,0.0,0.0,0.0,1.0,1.0,0.0,0.0,0.0,3.0,0.0,0.0,1.0,0.0,4.0,1.0,0.0,0.0,0.0,2.0,1.0,0.0,0.0,0.0,3.0,0.0,0.0,0.0,1.0,2.0,1.0,0.0,0.0,0.0,4.0,0.0,0.0,1.0,0.0,3.0,1.0,0.0,0.0,0.0,3.0,0.0,1.0,0.0,0.0,1.0,0.0,0.0,0.0,1.0,3.0,0.0,1.0,0.0,0.0,,4.0,2.0,6.0,4.0,16.0,25.0, 12.50 ,37.5, 25.00 ,62.5
2,1,7,01/06/2015,09:30:00,1,2,1,1,72.0,17.0,75.0,1,1,1,8.0,39.0,16,2.0,16.0,31.0,48.0,63.0,75.0,89.0,99.0,114.0,130.0,140.0,8.0,39.0,2.0,0.0,37.0,2.0,5.0,35.0,0.0,-3.0,35.0,2.0,6.0,33.0,2.0,-4.0,31.0,2.0,5.0,29.0,2.0,-6.0,27.0,0.0,13.0,27.0,0.0,19.0,45.0,2.0,85.0,100.0,85.0,85.0,100.0,85.0,85.0,100.0,81.0,93.0,89.0,100.0,75.0,100.0,91.0,85.0,50.0,85.0,15.0,50.0,85.0,75.0,90.0,81.0,93.0,81.0,90.0,75.0,90.0,94.0,1.0,9.0,9.0,9.0,1.0,9.0,5.0,9.0,4.0,7.0,6.0,9.0,5.0,1.0,2.0,,90.0,62.0,90.0,45.0,88.0,19.0,51.0,86.0,93.0,31.0,62.0,53.0,93.0,74.0,30.0,27.0,38.0,24.0,31.0,41.0,31.0,90.0,65.0,79.0,33.0,26.0,22.0,22.0,40.0,25.0,83.0,92.0,29.0,8.0,74.0,13.0,25.0,11.0,33.0,49.0,75.0,68.0,57.0,52.0,77.0,88.0,47.0,90.0,80.0,40.0,41.0,39.0,68.0,5.0,63.0,65.0,41.0,57.0,85.0,43.0,49.0,28.0,82.0,41.0,47.0,58.0,73.0,32.0,76.0,48.0,57.0,43.0,25.0,31.0,50.0,53.0,17.0,112.0,85.0,113.0,102.0,143.0,115.0,101.0,105.0,75.0,78.0,104.0,107.0,79.0,102.0,105.0,81.0,84.0,117.0,119.0,138.0,155.0,160.0,73.0,67.0,61.0,1.0,1.0,1.0,2.0,2.0,1.0,1.0,2.0,1.0,1.0,1.0,1.0,2.0,2.0,2.0,2.0,2.0,2.0,1.0,2.0,2.0,2.0,2.0,2.0,1.0,-256.0,63.0,49.0,,,1.0,1.0,1.0,5.0,5.0,3.0,8.0,4.0,1.0,6.0,1.0,2.0,2.0,1.0,1.0,3.0,1.0,4.0,6.0,4.0,5.0,6.0,8.0,6.0,5.0,6.0,5.0,6.0,4.0,5.0,2,1.0,1.0,0.0,0.0,0.0,4.0,0.0,0.0,0.0,1.0,2.0,0.0,1.0,0.0,0.0,1.0,1.0,0.0,0.0,0.0,2.0,0.0,1.0,0.0,0.0,1.0,1.0,0.0,0.0,0.0,1.0,1.0,0.0,0.0,0.0,4.0,1.0,0.0,0.0,0.0,2.0,1.0,0.0,0.0,0.0,3.0,0.0,0.0,0.0,1.0,2.0,1.0,0.0,0.0,0.0,2.0,1.0,0.0,0.0,0.0,3.0,1.0,0.0,0.0,0.0,1.0,0.0,0.0,0.0,1.0,1.0,0.0,0.0,0.0,1.0,2.0,1.0,0.0,0.0,0.0,13.0,6.0,6.0,2.0,2.0,16.0,37.5, 37.50 ,12.5, 12.50 ,25.0
2,2,8,01/06/2015,09:30:00,1,2,1,1,83.0,36.0,43.75,1,0,0,6.0,40.0,16,2.0,16.0,31.0,48.0,63.0,75.0,89.0,99.0,114.0,130.0,146.0,6.0,40.0,0.0,10.0,40.0,0.0,16.0,40.0,0.0,14.0,40.0,0.0,17.0,40.0,0.0,18.0,40.0,0.0,17.0,40.0,0.0,18.0,40.0,0.0,18.0,40.0,2.0,19.0,45.0,2.0,85.0,100.0,85.0,59.0,88.0,85.0,78.0,98.0,100.0,93.0,85.0,100.0,75.0,100.0,90.0,85.0,50.0,85.0,79.0,63.0,85.0,88.0,93.0,70.0,93.0,85.0,90.0,75.0,90.0,100.0,1.0,9.0,9.0,3.0,3.0,9.0,7.0,7.0,1.0,7.0,5.0,9.0,5.0,1.0,1.0,,84.0,,90.0,45.0,88.0,22.0,52.0,86.0,93.0,38.0,62.0,53.0,93.0,73.0,30.0,27.0,38.0,24.0,31.0,41.0,31.0,90.0,65.0,75.0,33.0,26.0,28.0,22.0,40.0,25.0,95.0,94.0,29.0,8.0,94.0,13.0,25.0,11.0,41.0,49.0,75.0,68.0,57.0,52.0,77.0,88.0,48.0,90.0,99.0,40.0,41.0,58.0,68.0,5.0,63.0,73.0,42.0,57.0,85.0,56.0,49.0,28.0,82.0,32.0,47.0,58.0,73.0,32.0,76.0,48.0,57.0,42.0,25.0,24.0,50.0,53.0,30.0,112.0,85.0,113.0,117.0,146.0,115.0,101.0,132.0,75.0,78.0,104.0,114.0,79.0,102.0,105.0,81.0,84.0,117.0,119.0,138.0,155.0,174.0,73.0,67.0,85.0,1.0,1.0,1.0,1.0,1.0,1.0,1.0,1.0,1.0,1.0,1.0,2.0,2.0,2.0,2.0,2.0,2.0,2.0,1.0,1.0,2.0,1.0,2.0,2.0,2.0,-134.0,64.0,51.0,,,1.0,2.0,1.0,5.0,5.0,4.0,1.0,4.0,1.0,6.0,1.0,2.0,2.0,4.0,1.0,2.0,2.0,2.0,4.0,3.0,5.0,4.0,6.0,6.0,4.0,6.0,6.0,5.0,5.0,7.0,1,3.0,0.0,1.0,0.0,0.0,4.0,0.0,0.0,0.0,1.0,4.0,0.0,0.0,0.0,1.0,1.0,1.0,0.0,0.0,0.0,1.0,1.0,0.0,0.0,0.0,4.0,0.0,0.0,0.0,1.0,1.0,1.0,0.0,0.0,0.0,4.0,1.0,0.0,0.0,0.0,2.0,1.0,0.0,0.0,0.0,3.0,0.0,0.0,0.0,1.0,2.0,1.0,0.0,0.0,0.0,4.0,0.0,0.0,1.0,0.0,3.0,1.0,0.0,0.0,0.0,4.0,0.0,0.0,1.0,0.0,1.0,0.0,0.0,0.0,1.0,2.0,1.0,0.0,0.0,0.0,2.0,4.0,3.0,3.0,6.0,16.0,25.0, 18.75 ,18.75, 37.50 ,56.25
2,3,9,01/06/2015,09:30:00,1,2,1,1,57.0,37.0,68.75,1,4,4,15.0,36.0,16,2.0,16.0,31.0,48.0,63.0,75.0,89.0,99.0,114.0,130.0,140.0,15.0,36.0,2.0,9.0,34.0,4.0,14.0,30.0,4.0,15.0,26.0,2.0,17.0,24.0,4.0,6.0,20.0,0.0,12.0,20.0,2.0,12.0,18.0,4.0,18.0,14.0,2.0,19.0,45.0,2.0,85.0,100.0,85.0,63.0,75.0,85.0,81.0,95.0,81.0,93.0,85.0,75.0,94.0,93.0,90.0,85.0,50.0,85.0,68.0,75.0,85.0,81.0,95.0,81.0,93.0,85.0,95.0,56.0,93.0,100.0,1.0,9.0,9.0,4.0,5.0,9.0,6.0,5.0,4.0,7.0,5.0,5.0,8.0,3.0,1.0,,82.0,75.0,90.0,45.0,88.0,22.0,51.0,86.0,75.0,38.0,62.0,48.0,71.0,73.0,30.0,27.0,38.0,24.0,3.0,41.0,31.0,90.0,65.0,75.0,33.0,8.0,28.0,22.0,40.0,25.0,95.0,92.0,29.0,28.0,94.0,13.0,49.0,25.0,41.0,49.0,75.0,68.0,57.0,76.0,77.0,88.0,48.0,90.0,99.0,40.0,59.0,58.0,68.0,5.0,63.0,73.0,41.0,57.0,67.0,56.0,49.0,39.0,63.0,32.0,47.0,58.0,73.0,32.0,73.0,48.0,57.0,42.0,25.0,24.0,50.0,51.0,30.0,112.0,85.0,113.0,117.0,143.0,115.0,103.0,132.0,75.0,97.0,97.0,114.0,79.0,102.0,105.0,81.0,79.0,117.0,119.0,138.0,155.0,174.0,73.0,67.0,85.0,1.0,1.0,1.0,1.0,2.0,1.0,2.0,1.0,1.0,2.0,2.0,2.0,2.0,2.0,2.0,2.0,1.0,2.0,1.0,1.0,2.0,1.0,2.0,1.0,2.0,-110.0,64.0,51.0,,,1.0,2.0,1.0,5.0,7.0,6.0,3.0,4.0,1.0,10.0,1.0,2.0,1.0,3.0,1.0,2.0,2.0,3.0,4.0,3.0,3.0,1.0,6.0,4.0,5.0,10.0,8.0,7.0,7.0,6.0,2,1.0,1.0,0.0,0.0,0.0,1.0,1.0,0.0,0.0,0.0,3.0,0.0,0.0,1.0,0.0,1.0,1.0,0.0,0.0,0.0,1.0,1.0,0.0,0.0,0.0,1.0,1.0,0.0,0.0,0.0,3.0,0.0,0.0,1.0,0.0,2.0,0.0,0.0,1.0,0.0,1.0,0.0,0.0,0.0,1.0,1.0,0.0,0.0,1.0,0.0,2.0,1.0,0.0,0.0,0.0,1.0,0.0,0.0,0.0,1.0,3.0,1.0,0.0,0.0,0.0,3.0,0.0,1.0,0.0,0.0,1.0,0.0,0.0,0.0,1.0,3.0,0.0,1.0,0.0,0.0,28.0,9.0,2.0,5.0,0.0,16.0,56.25, 12.50 ,31.25, -   ,31.25
2,4,10,01/06/2015,09:30:00,1,2,1,1,54.0,29.0,50.0,1,4,4,19.0,36.0,16,2.0,16.0,31.0,48.0,63.0,75.0,89.0,99.0,114.0,130.0,138.0,19.0,36.0,4.0,18.0,32.0,4.0,14.0,28.0,4.0,19.0,24.0,1.0,-31.0,23.0,1.0,20.0,22.0,1.0,-14.0,21.0,4.0,17.0,17.0,4.0,-18.0,13.0,4.0,19.0,45.0,2.0,85.0,98.0,85.0,76.0,75.0,85.0,81.0,95.0,81.0,90.0,85.0,100.0,75.0,93.0,91.0,85.0,46.0,85.0,36.0,75.0,85.0,81.0,95.0,81.0,100.0,85.0,90.0,75.0,93.0,94.0,1.0,8.0,9.0,7.0,5.0,9.0,6.0,5.0,4.0,9.0,5.0,9.0,5.0,3.0,2.0,,84.0,69.0,90.0,45.0,78.0,19.0,51.0,67.0,75.0,31.0,62.0,53.0,71.0,73.0,30.0,27.0,38.0,14.0,3.0,41.0,34.0,90.0,65.0,75.0,12.0,26.0,22.0,22.0,40.0,38.0,83.0,92.0,44.0,28.0,74.0,13.0,25.0,25.0,41.0,49.0,75.0,68.0,36.0,76.0,77.0,60.0,48.0,90.0,99.0,55.0,41.0,39.0,68.0,5.0,44.0,65.0,41.0,53.0,67.0,43.0,49.0,28.0,63.0,32.0,47.0,58.0,73.0,22.0,73.0,48.0,50.0,42.0,25.0,24.0,43.0,53.0,17.0,112.0,85.0,116.0,102.0,143.0,110.0,103.0,105.0,75.0,78.0,97.0,114.0,79.0,102.0,105.0,50.0,79.0,117.0,94.0,138.0,155.0,174.0,67.0,67.0,61.0,1.0,1.0,2.0,2.0,2.0,2.0,2.0,2.0,1.0,1.0,2.0,2.0,2.0,2.0,2.0,1.0,1.0,2.0,2.0,1.0,2.0,1.0,1.0,2.0,1.0,-123.0,58.0,53.0,,,1.0,1.0,1.0,4.0,5.0,3.0,0.0,3.0,1.0,6.0,0.0,2.0,2.0,2.0,1.0,1.0,1.0,4.0,7.0,5.0,10.0,2.0,10.0,4.0,7.0,5.0,10.0,4.0,6.0,5.0,2,1.0,1.0,0.0,0.0,0.0,3.0,0.0,0.0,1.0,0.0,3.0,0.0,0.0,1.0,0.0,1.0,1.0,0.0,0.0,0.0,2.0,0.0,1.0,0.0,0.0,3.0,0.0,0.0,1.0,0.0,1.0,1.0,0.0,0.0,0.0,4.0,1.0,0.0,0.0,0.0,2.0,1.0,0.0,0.0,0.0,3.0,0.0,0.0,0.0,1.0,1.0,0.0,0.0,0.0,1.0,1.0,0.0,0.0,0.0,1.0,3.0,1.0,0.0,0.0,0.0,4.0,0.0,0.0,1.0,0.0,1.0,0.0,0.0,0.0,1.0,3.0,0.0,1.0,0.0,0.0,31.0,6.0,2.0,6.0,2.0,16.0,37.5, 12.50 ,37.5, 12.50 ,50.0
2,5,11,01/06/2015,09:30:00,1,2,1,1,53.0,33.0,68.75,1,3,3,15.0,37.0,16,2.0,16.0,31.0,48.0,63.0,75.0,89.0,99.0,114.0,130.0,144.0,15.0,37.0,3.0,2.0,34.0,3.0,6.0,31.0,3.0,14.0,28.0,3.0,17.0,25.0,3.0,-1.0,22.0,3.0,15.0,19.0,3.0,7.0,16.0,4.0,6.0,12.0,4.0,19.0,45.0,2.0,85.0,98.0,85.0,54.0,100.0,87.0,93.0,91.0,69.0,93.0,85.0,100.0,75.0,78.0,90.0,85.0,46.0,85.0,89.0,50.0,81.0,63.0,99.0,89.0,93.0,85.0,90.0,75.0,98.0,100.0,1.0,8.0,9.0,2.0,1.0,8.0,3.0,2.0,6.0,7.0,5.0,9.0,5.0,7.0,1.0,,85.0,73.0,61.0,34.0,78.0,22.0,52.0,67.0,75.0,31.0,53.0,48.0,71.0,73.0,30.0,27.0,38.0,24.0,31.0,41.0,34.0,90.0,65.0,79.0,33.0,26.0,28.0,45.0,46.0,38.0,95.0,94.0,44.0,28.0,74.0,39.0,49.0,25.0,41.0,49.0,75.0,68.0,57.0,52.0,77.0,60.0,47.0,90.0,80.0,40.0,41.0,58.0,75.0,19.0,44.0,73.0,42.0,53.0,67.0,43.0,52.0,39.0,63.0,32.0,47.0,58.0,73.0,32.0,76.0,48.0,50.0,43.0,25.0,31.0,50.0,53.0,30.0,107.0,79.0,116.0,117.0,146.0,110.0,103.0,105.0,92.0,97.0,97.0,114.0,79.0,102.0,105.0,81.0,84.0,117.0,94.0,138.0,155.0,160.0,73.0,67.0,85.0,2.0,2.0,2.0,1.0,1.0,2.0,2.0,2.0,2.0,2.0,2.0,2.0,2.0,2.0,2.0,2.0,2.0,2.0,2.0,2.0,2.0,2.0,2.0,2.0,2.0,-172.0,52.0,60.0,,,1.0,1.0,1.0,5.0,7.0,3.0,0.0,4.0,1.0,8.0,1.0,2.0,2.0,4.0,1.0,1.0,2.0,2.0,3.0,4.0,5.0,2.0,8.0,8.0,7.0,8.0,8.0,2.0,8.0,6.0,2,4.0,0.0,0.0,0.0,1.0,1.0,1.0,0.0,0.0,0.0,2.0,0.0,1.0,0.0,0.0,1.0,1.0,0.0,0.0,0.0,2.0,0.0,1.0,0.0,0.0,4.0,0.0,0.0,0.0,1.0,2.0,0.0,1.0,0.0,0.0,2.0,0.0,0.0,1.0,0.0,1.0,0.0,0.0,0.0,1.0,3.0,0.0,0.0,0.0,1.0,1.0,0.0,0.0,0.0,1.0,4.0,0.0,0.0,1.0,0.0,1.0,0.0,0.0,0.0,1.0,2.0,1.0,0.0,0.0,0.0,1.0,0.0,0.0,0.0,1.0,3.0,0.0,1.0,0.0,0.0,32.0,6.0,5.0,2.0,3.0,16.0,37.5, 31.25 ,12.5, 18.75 ,31.25
2,6,12,01/06/2015,09:30:00,1,2,1,1,45.0,25.0,50.0,1,4,4,19.0,36.0,16,2.0,16.0,31.0,48.0,63.0,75.0,89.0,99.0,114.0,130.0,134.0,19.0,36.0,4.0,9.0,32.0,4.0,11.0,28.0,4.0,16.0,24.0,4.0,18.0,20.0,4.0,17.0,16.0,4.0,6.0,12.0,4.0,17.0,8.0,4.0,19.0,4.0,4.0,19.0,45.0,2.0,85.0,100.0,81.0,68.0,100.0,87.0,93.0,98.0,94.0,94.0,93.0,75.0,88.0,96.0,93.0,76.0,50.0,87.0,58.0,50.0,81.0,63.0,93.0,74.0,89.0,78.0,95.0,63.0,91.0,88.0,2.0,9.0,8.0,5.0,1.0,8.0,3.0,7.0,2.0,6.0,7.0,5.0,7.0,2.0,3.0,,87.0,67.0,90.0,45.0,78.0,22.0,52.0,86.0,93.0,38.0,53.0,53.0,93.0,74.0,30.0,27.0,38.0,24.0,31.0,41.0,34.0,90.0,65.0,75.0,33.0,26.0,28.0,22.0,40.0,38.0,95.0,94.0,29.0,8.0,94.0,39.0,25.0,11.0,33.0,49.0,75.0,68.0,57.0,52.0,77.0,60.0,48.0,90.0,99.0,40.0,41.0,58.0,68.0,5.0,44.0,73.0,42.0,57.0,85.0,56.0,52.0,28.0,82.0,41.0,47.0,58.0,73.0,32.0,76.0,48.0,50.0,42.0,25.0,24.0,50.0,53.0,30.0,112.0,85.0,116.0,117.0,146.0,115.0,101.0,132.0,92.0,78.0,104.0,107.0,79.0,102.0,105.0,81.0,84.0,117.0,94.0,138.0,155.0,174.0,73.0,67.0,85.0,1.0,1.0,2.0,1.0,1.0,1.0,1.0,1.0,2.0,1.0,1.0,1.0,2.0,2.0,2.0,2.0,2.0,2.0,2.0,1.0,2.0,1.0,2.0,2.0,2.0,-195.0,62.0,53.0,,,1.0,1.0,1.0,5.0,5.0,3.0,5.0,4.0,1.0,7.0,1.0,2.0,2.0,3.0,1.0,3.0,1.0,3.0,10.0,4.0,5.0,4.0,8.0,2.0,7.0,2.0,9.0,7.0,6.0,2.0,2,1.0,1.0,0.0,0.0,0.0,3.0,0.0,0.0,1.0,0.0,3.0,0.0,0.0,1.0,0.0,1.0,1.0,0.0,0.0,0.0,2.0,0.0,1.0,0.0,0.0,3.0,0.0,0.0,1.0,0.0,1.0,1.0,0.0,0.0,0.0,3.0,0.0,0.0,0.0,1.0,3.0,0.0,1.0,0.0,0.0,1.0,0.0,0.0,1.0,0.0,1.0,0.0,0.0,0.0,1.0,1.0,0.0,0.0,0.0,1.0,3.0,1.0,0.0,0.0,0.0,3.0,0.0,1.0,0.0,0.0,1.0,0.0,0.0,0.0,1.0,3.0,0.0,1.0,0.0,0.0,40.0,7.0,1.0,8.0,0.0,16.0,43.75, 6.25 ,50.0, -   ,50.0
2,31,13,01/06/2015,09:30:00,6,3,1,2,36.0,-78.0,37.5,1,0,0,17.0,40.0,10,2.0,10.0,20.0,35.0,46.0,59.0,70.0,78.0,89.0,99.0,104.0,17.0,40.0,0.0,5.0,40.0,0.0,16.0,40.0,0.0,12.0,40.0,1.0,16.0,39.0,1.0,10.0,38.0,0.0,6.0,38.0,0.0,17.0,38.0,1.0,6.0,37.0,1.0,15.0,0.0,2.0,85.0,100.0,85.0,85.0,100.0,100.0,100.0,100.0,100.0,100.0,100.0,100.0,100.0,100.0,100.0,15.0,50.0,85.0,15.0,50.0,50.0,50.0,90.0,70.0,70.0,70.0,90.0,50.0,90.0,50.0,9.0,9.0,9.0,9.0,1.0,1.0,1.0,9.0,1.0,1.0,9.0,9.0,9.0,1.0,9.0,,,44.0,90.0,45.0,88.0,22.0,52.0,86.0,93.0,38.0,62.0,53.0,93.0,74.0,30.0,27.0,38.0,24.0,31.0,41.0,34.0,90.0,65.0,79.0,33.0,26.0,28.0,22.0,40.0,25.0,95.0,94.0,29.0,8.0,94.0,13.0,25.0,11.0,33.0,49.0,75.0,68.0,57.0,52.0,77.0,60.0,47.0,90.0,80.0,40.0,41.0,58.0,68.0,5.0,63.0,73.0,42.0,57.0,85.0,56.0,49.0,28.0,82.0,41.0,47.0,58.0,73.0,32.0,76.0,48.0,50.0,43.0,25.0,31.0,50.0,53.0,30.0,112.0,85.0,113.0,117.0,146.0,115.0,101.0,132.0,75.0,78.0,104.0,107.0,79.0,102.0,105.0,81.0,84.0,117.0,94.0,138.0,155.0,160.0,73.0,67.0,85.0,1.0,1.0,1.0,1.0,1.0,1.0,1.0,1.0,1.0,1.0,1.0,1.0,2.0,2.0,2.0,2.0,2.0,2.0,2.0,2.0,2.0,2.0,2.0,2.0,2.0,-119.0,64.0,51.0,,,1.0,1.0,1.0,5.0,5.0,2.0,0.0,4.0,1.0,22.0,0.0,3.0,2.0,4.0,1.0,1.0,2.0,4.0,10.0,4.0,6.0,6.0,2.0,2.0,6.0,2.0,8.0,2.0,2.0,2.0,1,1.0,1.0,0.0,0.0,0.0,4.0,0.0,0.0,0.0,1.0,3.0,0.0,0.0,1.0,0.0,1.0,1.0,0.0,0.0,0.0,1.0,1.0,0.0,0.0,0.0,3.0,0.0,0.0,1.0,0.0,4.0,0.0,0.0,0.0,1.0,4.0,1.0,0.0,0.0,0.0,1.0,0.0,0.0,0.0,1.0,4.0,0.0,1.0,0.0,0.0,1.0,0.0,0.0,0.0,1.0,1.0,0.0,0.0,0.0,1.0,3.0,1.0,0.0,0.0,0.0,4.0,0.0,0.0,1.0,0.0,3.0,0.0,1.0,0.0,0.0,3.0,0.0,1.0,0.0,0.0,4.0,6.0,0.0,5.0,5.0,16.0,37.5, -   ,31.25, 31.25 ,62.5
2,32,14,01/06/2015,09:30:00,6,3,1,2,16.0,22.0,62.5,1,2,2,-91.0,38.0,10,2.0,10.0,20.0,35.0,46.0,59.0,70.0,78.0,89.0,99.0,103.0,-91.0,38.0,3.0,0.0,35.0,4.0,-1.0,31.0,3.0,-15.0,28.0,2.0,-8.0,26.0,2.0,-7.0,24.0,2.0,2.0,22.0,2.0,15.0,20.0,2.0,-28.0,18.0,2.0,19.0,0.0,2.0,85.0,100.0,72.0,68.0,94.0,91.0,89.0,98.0,94.0,95.0,93.0,94.0,88.0,96.0,95.0,59.0,50.0,91.0,58.0,56.0,72.0,69.0,93.0,74.0,85.0,78.0,91.0,63.0,91.0,75.0,4.0,9.0,6.0,5.0,2.0,6.0,4.0,7.0,2.0,5.0,7.0,8.0,7.0,2.0,5.0,,85.0,64.0,61.0,45.0,88.0,22.0,51.0,86.0,75.0,38.0,62.0,53.0,93.0,74.0,30.0,27.0,38.0,24.0,31.0,41.0,34.0,90.0,65.0,79.0,33.0,26.0,28.0,45.0,40.0,25.0,95.0,92.0,29.0,28.0,94.0,13.0,25.0,11.0,33.0,49.0,75.0,68.0,57.0,52.0,77.0,60.0,48.0,90.0,80.0,40.0,41.0,58.0,75.0,5.0,63.0,73.0,41.0,57.0,67.0,56.0,49.0,28.0,82.0,41.0,47.0,58.0,73.0,32.0,76.0,48.0,50.0,42.0,25.0,31.0,50.0,53.0,30.0,107.0,85.0,113.0,117.0,143.0,115.0,103.0,132.0,75.0,78.0,104.0,107.0,79.0,102.0,105.0,81.0,84.0,117.0,94.0,138.0,155.0,160.0,73.0,67.0,85.0,2.0,1.0,1.0,1.0,2.0,1.0,2.0,1.0,1.0,1.0,1.0,1.0,2.0,2.0,2.0,2.0,2.0,2.0,2.0,1.0,2.0,2.0,2.0,2.0,2.0,-157.0,59.0,54.0,,,1.0,2.0,1.0,3.0,7.0,5.0,1.0,4.0,1.0,9.0,1.0,2.0,1.0,3.0,3.0,2.0,3.0,3.0,4.0,4.0,3.0,7.0,4.0,9.0,5.0,9.0,6.0,10.0,6.0,7.0,2,1.0,1.0,0.0,0.0,0.0,3.0,0.0,0.0,1.0,0.0,2.0,0.0,1.0,0.0,0.0,1.0,1.0,0.0,0.0,0.0,2.0,0.0,1.0,0.0,0.0,1.0,1.0,0.0,0.0,0.0,2.0,0.0,1.0,0.0,0.0,3.0,0.0,0.0,0.0,1.0,1.0,0.0,0.0,0.0,1.0,1.0,0.0,0.0,1.0,0.0,1.0,0.0,0.0,0.0,1.0,4.0,0.0,0.0,1.0,0.0,3.0,1.0,0.0,0.0,0.0,3.0,0.0,1.0,0.0,0.0,1.0,0.0,0.0,0.0,1.0,3.0,0.0,1.0,0.0,0.0,24.0,7.0,3.0,5.0,1.0,16.0,43.75, 18.75 ,31.25, 6.25 ,37.5
2,33,15,01/06/2015,09:30:00,6,3,1,2,18.0,35.0,56.25,1,2,2,5.0,38.0,10,2.0,10.0,20.0,35.0,46.0,59.0,70.0,78.0,89.0,99.0,107.0,5.0,38.0,2.0,16.0,36.0,2.0,-55.0,34.0,2.0,9.0,32.0,2.0,17.0,30.0,4.0,8.0,26.0,2.0,17.0,24.0,2.0,12.0,22.0,2.0,13.0,20.0,2.0,9.0,0.0,2.0,85.0,100.0,85.0,68.0,75.0,85.0,81.0,95.0,81.0,93.0,85.0,94.0,75.0,93.0,93.0,85.0,50.0,85.0,58.0,75.0,85.0,81.0,95.0,81.0,93.0,85.0,91.0,75.0,93.0,88.0,1.0,9.0,9.0,5.0,5.0,9.0,6.0,5.0,4.0,7.0,5.0,8.0,5.0,3.0,3.0,,83.0,73.0,61.0,45.0,78.0,19.0,51.0,67.0,75.0,38.0,53.0,48.0,71.0,73.0,30.0,27.0,38.0,24.0,31.0,41.0,31.0,90.0,65.0,75.0,12.0,26.0,22.0,45.0,40.0,38.0,83.0,92.0,44.0,28.0,94.0,39.0,49.0,25.0,41.0,49.0,75.0,68.0,57.0,52.0,77.0,88.0,48.0,90.0,99.0,55.0,41.0,39.0,75.0,5.0,44.0,65.0,41.0,53.0,67.0,56.0,52.0,39.0,63.0,32.0,47.0,58.0,73.0,32.0,76.0,48.0,57.0,42.0,25.0,24.0,43.0,53.0,17.0,107.0,85.0,116.0,102.0,143.0,110.0,103.0,132.0,92.0,97.0,97.0,114.0,79.0,102.0,105.0,81.0,84.0,117.0,119.0,138.0,155.0,174.0,67.0,67.0,61.0,2.0,1.0,2.0,2.0,2.0,2.0,2.0,1.0,2.0,2.0,2.0,2.0,2.0,2.0,2.0,2.0,2.0,2.0,1.0,1.0,2.0,1.0,1.0,2.0,1.0,-394.0,53.0,57.0,,,1.0,1.0,2.0,2.0,2.0,3.0,0.0,1.0,2.0,8.0,0.0,2.0,2.0,3.0,1.0,1.0,1.0,10.0,10.0,5.0,10.0,1.0,7.0,2.0,7.0,3.0,10.0,8.0,6.0,3.0,2,1.0,1.0,0.0,0.0,0.0,3.0,0.0,0.0,1.0,0.0,3.0,0.0,0.0,1.0,0.0,1.0,1.0,0.0,0.0,0.0,2.0,0.0,1.0,0.0,0.0,3.0,0.0,0.0,1.0,0.0,1.0,1.0,0.0,0.0,0.0,4.0,1.0,0.0,0.0,0.0,3.0,0.0,1.0,0.0,0.0,3.0,0.0,0.0,0.0,1.0,2.0,1.0,0.0,0.0,0.0,1.0,0.0,0.0,0.0,1.0,2.0,0.0,1.0,0.0,0.0,3.0,0.0,1.0,0.0,0.0,1.0,0.0,0.0,0.0,1.0,2.0,1.0,0.0,0.0,0.0,22.0,5.0,4.0,6.0,1.0,16.0,31.25, 25.00 ,37.5, 6.25 ,43.75
2,34,16,01/06/2015,09:30:00,6,3,1,2,25.0,38.0,56.25,1,2,2,11.0,38.0,10,2.0,10.0,20.0,35.0,46.0,59.0,70.0,78.0,89.0,99.0,105.0,11.0,38.0,1.0,3.0,37.0,3.0,15.0,34.0,1.0,7.0,33.0,4.0,-12.0,29.0,0.0,10.0,29.0,0.0,16.0,29.0,1.0,15.0,28.0,2.0,-1.0,26.0,1.0,11.0,0.0,2.0,85.0,98.0,50.0,72.0,50.0,100.0,81.0,95.0,81.0,96.0,85.0,69.0,75.0,89.0,95.0,76.0,46.0,100.0,47.0,100.0,50.0,81.0,95.0,81.0,81.0,85.0,96.0,75.0,94.0,75.0,2.0,8.0,1.0,6.0,9.0,1.0,6.0,5.0,4.0,4.0,5.0,4.0,5.0,4.0,5.0,,76.0,70.0,90.0,45.0,78.0,22.0,52.0,86.0,75.0,38.0,53.0,48.0,93.0,73.0,30.0,27.0,38.0,24.0,31.0,41.0,31.0,90.0,61.0,75.0,33.0,26.0,28.0,22.0,40.0,38.0,95.0,94.0,29.0,28.0,94.0,39.0,49.0,11.0,41.0,49.0,75.0,68.0,57.0,52.0,77.0,88.0,48.0,95.0,99.0,40.0,41.0,58.0,68.0,5.0,44.0,73.0,42.0,57.0,67.0,56.0,52.0,39.0,82.0,32.0,47.0,58.0,73.0,32.0,76.0,48.0,57.0,42.0,34.0,24.0,50.0,53.0,30.0,112.0,85.0,116.0,117.0,146.0,115.0,103.0,132.0,92.0,97.0,104.0,114.0,79.0,102.0,105.0,81.0,84.0,117.0,119.0,138.0,156.0,174.0,73.0,67.0,85.0,1.0,1.0,2.0,1.0,1.0,1.0,2.0,1.0,2.0,2.0,1.0,2.0,2.0,2.0,2.0,2.0,2.0,2.0,1.0,1.0,1.0,1.0,2.0,2.0,2.0,-211.0,62.0,53.0,,,1.0,1.0,1.0,5.0,1.0,3.0,1.0,3.0,1.0,8.0,0.0,2.0,2.0,2.0,1.0,1.0,1.0,5.0,10.0,4.0,10.0,7.0,5.0,2.0,9.0,2.0,7.0,5.0,4.0,4.0,2,1.0,1.0,0.0,0.0,0.0,3.0,0.0,0.0,1.0,0.0,3.0,0.0,0.0,1.0,0.0,1.0,1.0,0.0,0.0,0.0,1.0,1.0,0.0,0.0,0.0,4.0,0.0,0.0,0.0,1.0,1.0,1.0,0.0,0.0,0.0,1.0,0.0,1.0,0.0,0.0,1.0,0.0,0.0,0.0,1.0,1.0,0.0,0.0,1.0,0.0,2.0,1.0,0.0,0.0,0.0,1.0,0.0,0.0,0.0,1.0,3.0,1.0,0.0,0.0,0.0,3.0,0.0,1.0,0.0,0.0,3.0,0.0,1.0,0.0,0.0,3.0,0.0,1.0,0.0,0.0,15.0,8.0,1.0,6.0,1.0,16.0,50.0, 6.25 ,37.5, 6.25 ,43.75
2,35,17,01/06/2015,09:30:00,6,3,1,2,16.0,24.0,56.25,1,2,2,17.0,38.0,10,2.0,10.0,20.0,35.0,46.0,59.0,70.0,78.0,89.0,99.0,101.0,17.0,38.0,2.0,1.0,36.0,4.0,17.0,32.0,3.0,6.0,29.0,2.0,17.0,27.0,2.0,9.0,25.0,2.0,-5.0,23.0,4.0,13.0,19.0,1.0,18.0,18.0,2.0,19.0,0.0,2.0,85.0,98.0,85.0,68.0,81.0,93.0,93.0,94.0,100.0,98.0,89.0,94.0,100.0,93.0,96.0,68.0,46.0,85.0,58.0,69.0,68.0,63.0,96.0,70.0,78.0,81.0,91.0,50.0,93.0,69.0,3.0,8.0,9.0,5.0,4.0,5.0,3.0,4.0,1.0,3.0,6.0,8.0,9.0,3.0,6.0,,85.0,66.0,90.0,45.0,88.0,19.0,52.0,86.0,75.0,31.0,53.0,53.0,71.0,73.0,30.0,27.0,38.0,24.0,31.0,41.0,31.0,90.0,65.0,79.0,33.0,26.0,22.0,22.0,40.0,25.0,83.0,94.0,29.0,28.0,74.0,39.0,25.0,25.0,41.0,49.0,75.0,68.0,57.0,52.0,77.0,88.0,48.0,90.0,80.0,40.0,41.0,39.0,68.0,5.0,63.0,65.0,42.0,57.0,67.0,43.0,52.0,28.0,63.0,32.0,47.0,58.0,73.0,32.0,76.0,48.0,57.0,42.0,25.0,31.0,50.0,53.0,17.0,112.0,85.0,113.0,102.0,146.0,115.0,103.0,105.0,92.0,78.0,97.0,114.0,79.0,102.0,105.0,81.0,84.0,117.0,119.0,138.0,155.0,160.0,73.0,67.0,61.0,1.0,1.0,1.0,2.0,1.0,1.0,2.0,2.0,2.0,1.0,2.0,2.0,2.0,2.0,2.0,2.0,2.0,2.0,1.0,1.0,2.0,2.0,2.0,2.0,1.0,-110.0,63.0,49.0,,,6.0,2.0,1.0,2.0,1.0,3.0,2.0,1.0,2.0,6.0,1.0,2.0,2.0,4.0,1.0,1.0,2.0,4.0,7.0,4.0,9.0,6.0,6.0,6.0,5.0,5.0,9.0,8.0,7.0,6.0,2,1.0,1.0,0.0,0.0,0.0,3.0,0.0,0.0,1.0,0.0,3.0,0.0,0.0,1.0,0.0,1.0,1.0,0.0,0.0,0.0,1.0,1.0,0.0,0.0,0.0,3.0,0.0,0.0,1.0,0.0,2.0,0.0,1.0,0.0,0.0,1.0,0.0,1.0,0.0,0.0,4.0,0.0,0.0,1.0,0.0,3.0,0.0,0.0,0.0,1.0,2.0,1.0,0.0,0.0,0.0,1.0,0.0,0.0,0.0,1.0,2.0,0.0,1.0,0.0,0.0,3.0,0.0,1.0,0.0,0.0,2.0,1.0,0.0,0.0,0.0,3.0,0.0,1.0,0.0,0.0,24.0,5.0,4.0,6.0,1.0,16.0,31.25, 25.00 ,37.5, 6.25 ,43.75
2,36,18,01/06/2015,09:30:00,6,3,1,2,22.0,23.0,37.5,1,2,2,17.0,38.0,10,2.0,10.0,20.0,35.0,46.0,59.0,70.0,78.0,89.0,99.0,99.0,17.0,38.0,2.0,19.0,36.0,2.0,5.0,34.0,2.0,16.0,32.0,2.0,19.0,30.0,2.0,18.0,28.0,2.0,17.0,26.0,2.0,19.0,24.0,2.0,17.0,22.0,0.0,19.0,0.0,2.0,85.0,100.0,85.0,72.0,81.0,91.0,85.0,100.0,88.0,94.0,100.0,100.0,81.0,100.0,94.0,68.0,50.0,85.0,47.0,69.0,72.0,75.0,90.0,78.0,89.0,70.0,90.0,69.0,90.0,81.0,3.0,9.0,9.0,6.0,4.0,6.0,5.0,9.0,3.0,6.0,9.0,9.0,6.0,1.0,4.0,,86.0,65.0,90.0,34.0,78.0,22.0,52.0,86.0,75.0,38.0,53.0,48.0,93.0,73.0,30.0,7.0,22.0,24.0,31.0,41.0,31.0,90.0,61.0,75.0,33.0,26.0,28.0,22.0,46.0,38.0,95.0,94.0,29.0,28.0,94.0,39.0,49.0,11.0,41.0,49.0,86.0,99.0,57.0,52.0,77.0,88.0,47.0,95.0,99.0,40.0,41.0,58.0,68.0,19.0,44.0,73.0,42.0,57.0,67.0,56.0,52.0,39.0,82.0,32.0,47.0,79.0,77.0,32.0,76.0,48.0,57.0,43.0,34.0,24.0,50.0,53.0,30.0,112.0,79.0,116.0,117.0,146.0,115.0,103.0,132.0,92.0,97.0,104.0,114.0,79.0,93.0,121.0,81.0,84.0,117.0,119.0,138.0,156.0,174.0,73.0,67.0,85.0,1.0,2.0,2.0,1.0,1.0,1.0,2.0,1.0,2.0,2.0,1.0,2.0,2.0,1.0,1.0,2.0,2.0,2.0,1.0,2.0,1.0,1.0,2.0,2.0,2.0,-59.0,60.0,54.0,,,1.0,1.0,1.0,4.0,7.0,3.0,0.0,2.0,5.0,10.0,2.0,2.0,2.0,3.0,3.0,1.0,3.0,1.0,4.0,3.0,4.0,4.0,6.0,4.0,8.0,3.0,4.0,2.0,9.0,3.0,3,2.0,0.0,0.0,1.0,0.0,3.0,0.0,0.0,1.0,0.0,3.0,0.0,0.0,1.0,0.0,1.0,1.0,0.0,0.0,0.0,2.0,0.0,1.0,0.0,0.0,3.0,0.0,0.0,1.0,0.0,1.0,1.0,0.0,0.0,0.0,3.0,0.0,0.0,0.0,1.0,3.0,0.0,1.0,0.0,0.0,3.0,0.0,0.0,0.0,1.0,1.0,0.0,0.0,0.0,1.0,3.0,0.0,1.0,0.0,0.0,3.0,1.0,0.0,0.0,0.0,3.0,0.0,1.0,0.0,0.0,1.0,0.0,0.0,0.0,1.0,3.0,0.0,1.0,0.0,0.0,18.0,4.0,2.0,10.0,0.0,16.0,25.0, 12.50 ,62.5, -   ,62.5
3,1,19,02/06/2015,13:30:00,1,4,1,1,66.0,37.0,62.5,1,2,2,15.0,38.0,16,2.0,16.0,27.0,38.0,52.0,64.0,76.0,89.0,101.0,115.0,123.0,15.0,38.0,2.0,-16.0,36.0,1.0,-9.0,35.0,4.0,12.0,31.0,2.0,10.0,29.0,1.0,1.0,28.0,1.0,3.0,27.0,2.0,11.0,25.0,1.0,7.0,24.0,3.0,17.0,45.0,1.0,85.0,100.0,85.0,63.0,75.0,85.0,81.0,95.0,81.0,93.0,85.0,100.0,75.0,93.0,93.0,85.0,50.0,85.0,68.0,75.0,85.0,81.0,95.0,81.0,93.0,85.0,90.0,75.0,93.0,88.0,1.0,9.0,9.0,4.0,5.0,9.0,6.0,5.0,4.0,7.0,5.0,9.0,5.0,3.0,3.0,,82.0,75.0,90.0,45.0,78.0,22.0,52.0,67.0,75.0,38.0,53.0,48.0,71.0,73.0,30.0,27.0,38.0,24.0,31.0,41.0,34.0,90.0,65.0,79.0,33.0,26.0,28.0,22.0,40.0,38.0,95.0,94.0,44.0,28.0,94.0,39.0,49.0,25.0,41.0,49.0,75.0,68.0,57.0,52.0,77.0,60.0,48.0,90.0,80.0,40.0,41.0,58.0,68.0,5.0,44.0,73.0,42.0,53.0,67.0,56.0,52.0,39.0,63.0,32.0,47.0,58.0,73.0,32.0,76.0,48.0,50.0,42.0,25.0,31.0,50.0,53.0,30.0,112.0,85.0,116.0,117.0,146.0,110.0,103.0,132.0,92.0,97.0,97.0,114.0,79.0,102.0,105.0,81.0,84.0,117.0,94.0,138.0,155.0,160.0,73.0,67.0,85.0,1.0,1.0,2.0,1.0,1.0,2.0,2.0,1.0,2.0,2.0,2.0,2.0,2.0,2.0,2.0,2.0,2.0,2.0,2.0,1.0,2.0,2.0,2.0,2.0,2.0,99.0,,,,,1.0,2.0,1.0,5.0,7.0,4.0,0.0,4.0,1.0,7.0,0.0,2.0,2.0,4.0,3.0,2.0,2.0,5.0,4.0,5.0,5.0,5.0,5.0,6.0,5.0,7.0,7.0,7.0,5.0,5.0,3,1.0,1.0,0.0,0.0,0.0,3.0,0.0,0.0,1.0,0.0,3.0,0.0,0.0,1.0,0.0,1.0,1.0,0.0,0.0,0.0,1.0,1.0,0.0,0.0,0.0,1.0,1.0,0.0,0.0,0.0,3.0,0.0,0.0,1.0,0.0,3.0,0.0,0.0,0.0,1.0,2.0,1.0,0.0,0.0,0.0,1.0,0.0,0.0,1.0,0.0,1.0,0.0,0.0,0.0,1.0,2.0,1.0,0.0,0.0,0.0,3.0,1.0,0.0,0.0,0.0,3.0,0.0,1.0,0.0,0.0,1.0,0.0,0.0,0.0,1.0,2.0,1.0,0.0,0.0,0.0,19.0,7.0,3.0,6.0,0.0,16.0,43.75, 18.75 ,37.5, -   ,37.5
3,7,20,02/06/2015,13:30:00,1,4,1,1,67.0,32.0,43.75,1,3,3,5.0,37.0,16,2.0,16.0,27.0,38.0,52.0,64.0,76.0,89.0,101.0,115.0,125.0,5.0,37.0,2.0,12.0,35.0,3.0,8.0,32.0,1.0,19.0,31.0,1.0,15.0,30.0,2.0,14.0,28.0,1.0,16.0,27.0,1.0,14.0,26.0,2.0,17.0,24.0,2.0,17.0,45.0,1.0,85.0,89.0,81.0,63.0,75.0,89.0,93.0,96.0,81.0,93.0,81.0,100.0,75.0,96.0,93.0,85.0,24.0,87.0,68.0,75.0,76.0,63.0,94.0,81.0,93.0,89.0,90.0,75.0,91.0,88.0,1.0,3.0,8.0,4.0,5.0,7.0,3.0,6.0,4.0,7.0,4.0,9.0,5.0,2.0,3.0,,80.0,69.0,90.0,45.0,78.0,22.0,52.0,86.0,93.0,38.0,53.0,48.0,93.0,73.0,30.0,0.0,38.0,24.0,31.0,41.0,31.0,90.0,65.0,79.0,33.0,26.0,28.0,22.0,40.0,38.0,95.0,94.0,29.0,8.0,94.0,39.0,49.0,11.0,41.0,49.0,0.0,68.0,57.0,52.0,77.0,88.0,48.0,90.0,80.0,40.0,41.0,58.0,68.0,5.0,44.0,73.0,42.0,57.0,85.0,56.0,52.0,39.0,82.0,32.0,47.0,0.0,73.0,32.0,76.0,48.0,57.0,42.0,25.0,31.0,50.0,53.0,30.0,112.0,85.0,116.0,117.0,146.0,115.0,101.0,132.0,92.0,97.0,104.0,114.0,79.0,0.0,105.0,81.0,84.0,117.0,119.0,138.0,155.0,160.0,73.0,67.0,85.0,1.0,1.0,2.0,1.0,1.0,1.0,1.0,1.0,2.0,2.0,1.0,2.0,2.0,0.0,2.0,2.0,2.0,2.0,1.0,1.0,2.0,2.0,2.0,2.0,2.0,99.0,,,,,1.0,1.0,1.0,5.0,5.0,4.0,0.0,1.0,5.0,9.0,1.0,2.0,2.0,2.0,3.0,1.0,1.0,3.0,6.0,3.0,8.0,5.0,8.0,3.0,6.0,4.0,7.0,6.0,6.0,6.0,3,3.0,0.0,1.0,0.0,0.0,3.0,0.0,0.0,1.0,0.0,4.0,0.0,0.0,0.0,1.0,1.0,1.0,0.0,0.0,0.0,1.0,1.0,0.0,0.0,0.0,1.0,1.0,0.0,0.0,0.0,4.0,0.0,0.0,0.0,1.0,3.0,0.0,0.0,0.0,1.0,2.0,1.0,0.0,0.0,0.0,4.0,0.0,1.0,0.0,0.0,1.0,0.0,0.0,0.0,1.0,1.0,0.0,0.0,0.0,1.0,3.0,1.0,0.0,0.0,0.0,3.0,0.0,1.0,0.0,0.0,1.0,0.0,0.0,0.0,1.0,3.0,0.0,1.0,0.0,0.0,18.0,6.0,1.0,6.0,3.0,16.0,37.5, 6.25 ,37.5, 18.75 ,56.25
3,13,21,02/06/2015,13:30:00,1,4,1,2,5.0,37.0,43.75,1,3,3,-3.0,37.0,16,2.0,16.0,27.0,38.0,52.0,64.0,76.0,89.0,101.0,115.0,119.0,-3.0,37.0,3.0,4.0,34.0,2.0,8.0,32.0,4.0,14.0,28.0,3.0,11.0,25.0,4.0,18.0,21.0,4.0,18.0,17.0,4.0,18.0,13.0,4.0,19.0,9.0,4.0,18.0,0.0,1.0,85.0,100.0,85.0,63.0,75.0,85.0,81.0,95.0,81.0,93.0,85.0,94.0,75.0,93.0,91.0,85.0,50.0,85.0,68.0,75.0,85.0,81.0,95.0,81.0,93.0,85.0,91.0,75.0,93.0,94.0,1.0,9.0,9.0,4.0,5.0,9.0,6.0,5.0,4.0,7.0,5.0,8.0,5.0,3.0,2.0,,82.0,75.0,90.0,45.0,78.0,22.0,51.0,86.0,75.0,31.0,53.0,48.0,71.0,73.0,30.0,27.0,22.0,24.0,31.0,41.0,31.0,90.0,65.0,75.0,33.0,8.0,28.0,22.0,40.0,38.0,95.0,92.0,29.0,28.0,74.0,39.0,49.0,25.0,41.0,49.0,75.0,99.0,57.0,52.0,77.0,88.0,48.0,90.0,99.0,40.0,59.0,58.0,68.0,5.0,44.0,73.0,41.0,57.0,67.0,43.0,52.0,39.0,63.0,32.0,47.0,58.0,77.0,32.0,76.0,48.0,57.0,42.0,25.0,24.0,50.0,51.0,30.0,112.0,85.0,116.0,117.0,143.0,115.0,103.0,105.0,92.0,97.0,97.0,114.0,79.0,102.0,121.0,81.0,84.0,117.0,119.0,138.0,155.0,174.0,73.0,67.0,85.0,1.0,1.0,2.0,1.0,2.0,1.0,2.0,2.0,2.0,2.0,2.0,2.0,2.0,2.0,1.0,2.0,2.0,2.0,1.0,1.0,2.0,1.0,2.0,1.0,2.0,99.0,,,,,7.0,2.0,1.0,5.0,5.0,3.0,0.0,4.0,1.0,3.0,0.0,2.0,2.0,3.0,3.0,1.0,3.0,4.0,5.0,4.0,7.0,1.0,5.0,3.0,4.0,5.0,7.0,5.0,9.0,5.0,2,1.0,1.0,0.0,0.0,0.0,4.0,0.0,0.0,0.0,1.0,3.0,0.0,0.0,1.0,0.0,1.0,1.0,0.0,0.0,0.0,1.0,1.0,0.0,0.0,0.0,4.0,0.0,0.0,0.0,1.0,3.0,0.0,0.0,1.0,0.0,3.0,0.0,0.0,0.0,1.0,2.0,1.0,0.0,0.0,0.0,4.0,0.0,1.0,0.0,0.0,2.0,1.0,0.0,0.0,0.0,1.0,0.0,0.0,0.0,1.0,3.0,1.0,0.0,0.0,0.0,3.0,0.0,1.0,0.0,0.0,1.0,0.0,0.0,0.0,1.0,3.0,0.0,1.0,0.0,0.0,35.0,5.0,2.0,6.0,3.0,16.0,31.25, 12.50 ,37.5, 18.75 ,56.25
3,19,22,02/06/2015,13:30:00,1,4,1,1,65.0,30.0,62.5,1,2,2,-11.0,38.0,16,2.0,16.0,27.0,38.0,52.0,64.0,76.0,89.0,101.0,115.0,127.0,-11.0,38.0,2.0,-20.0,36.0,2.0,-18.0,34.0,2.0,-10.0,32.0,2.0,-14.0,30.0,2.0,4.0,28.0,2.0,-1.0,26.0,1.0,-10.0,25.0,3.0,-13.0,22.0,2.0,5.0,45.0,1.0,85.0,100.0,85.0,68.0,81.0,87.0,85.0,96.0,88.0,94.0,89.0,94.0,81.0,96.0,93.0,76.0,50.0,85.0,58.0,69.0,81.0,75.0,94.0,78.0,89.0,81.0,91.0,69.0,91.0,88.0,2.0,9.0,9.0,5.0,4.0,8.0,5.0,6.0,3.0,6.0,6.0,8.0,6.0,2.0,3.0,,84.0,70.0,61.0,45.0,88.0,22.0,52.0,67.0,75.0,38.0,53.0,48.0,71.0,73.0,30.0,27.0,38.0,24.0,31.0,41.0,34.0,90.0,65.0,75.0,33.0,26.0,22.0,45.0,40.0,25.0,95.0,94.0,44.0,28.0,94.0,39.0,49.0,25.0,41.0,49.0,75.0,68.0,57.0,52.0,77.0,60.0,48.0,90.0,99.0,40.0,41.0,39.0,75.0,5.0,63.0,73.0,42.0,53.0,67.0,56.0,52.0,39.0,63.0,32.0,47.0,58.0,73.0,32.0,76.0,48.0,50.0,42.0,25.0,24.0,50.0,53.0,17.0,107.0,85.0,113.0,117.0,146.0,110.0,103.0,132.0,92.0,97.0,97.0,114.0,79.0,102.0,105.0,81.0,84.0,117.0,94.0,138.0,155.0,174.0,73.0,67.0,61.0,2.0,1.0,1.0,1.0,1.0,2.0,2.0,1.0,2.0,2.0,2.0,2.0,2.0,2.0,2.0,2.0,2.0,2.0,2.0,1.0,2.0,1.0,2.0,2.0,1.0,99.0,,,,,1.0,1.0,1.0,3.0,5.0,4.0,0.0,4.0,1.0,10.0,1.0,2.0,2.0,3.0,1.0,3.0,1.0,3.0,3.0,3.0,10.0,10.0,1.0,10.0,10.0,10.0,10.0,10.0,10.0,10.0,2,1.0,1.0,0.0,0.0,0.0,3.0,0.0,0.0,1.0,0.0,3.0,0.0,0.0,1.0,0.0,1.0,1.0,0.0,0.0,0.0,1.0,1.0,0.0,0.0,0.0,3.0,0.0,0.0,1.0,0.0,2.0,0.0,1.0,0.0,0.0,4.0,1.0,0.0,0.0,0.0,2.0,1.0,0.0,0.0,0.0,1.0,0.0,0.0,1.0,0.0,1.0,0.0,0.0,0.0,1.0,2.0,1.0,0.0,0.0,0.0,2.0,0.0,1.0,0.0,0.0,3.0,0.0,1.0,0.0,0.0,1.0,0.0,0.0,0.0,1.0,3.0,0.0,1.0,0.0,0.0,20.0,6.0,4.0,5.0,1.0,16.0,37.5, 25.00 ,31.25, 6.25 ,37.5
3,25,23,02/06/2015,13:30:00,1,4,1,2,35.0,35.0,50.0,1,2,2,-14.0,38.0,16,2.0,16.0,27.0,38.0,52.0,64.0,76.0,89.0,101.0,115.0,119.0,-14.0,38.0,0.0,2.0,38.0,1.0,-9.0,37.0,0.0,7.0,37.0,1.0,6.0,36.0,0.0,15.0,36.0,1.0,17.0,35.0,0.0,16.0,35.0,0.0,15.0,35.0,0.0,18.0,0.0,1.0,85.0,100.0,85.0,68.0,75.0,85.0,81.0,95.0,81.0,93.0,85.0,100.0,75.0,93.0,91.0,85.0,50.0,85.0,58.0,75.0,85.0,81.0,95.0,81.0,93.0,85.0,90.0,75.0,93.0,94.0,1.0,9.0,9.0,5.0,5.0,9.0,6.0,5.0,4.0,7.0,5.0,9.0,5.0,3.0,2.0,,83.0,73.0,90.0,45.0,88.0,22.0,51.0,86.0,93.0,31.0,62.0,48.0,93.0,73.0,30.0,27.0,38.0,24.0,31.0,41.0,34.0,90.0,65.0,79.0,33.0,26.0,22.0,22.0,40.0,25.0,95.0,92.0,29.0,8.0,74.0,13.0,49.0,11.0,41.0,49.0,75.0,68.0,57.0,52.0,77.0,60.0,48.0,90.0,80.0,40.0,41.0,39.0,68.0,5.0,63.0,73.0,41.0,57.0,85.0,43.0,49.0,39.0,82.0,32.0,47.0,58.0,73.0,32.0,76.0,48.0,50.0,42.0,25.0,31.0,50.0,53.0,17.0,112.0,85.0,113.0,117.0,143.0,115.0,101.0,105.0,75.0,97.0,104.0,114.0,79.0,102.0,105.0,81.0,84.0,117.0,94.0,138.0,155.0,160.0,73.0,67.0,61.0,1.0,1.0,1.0,1.0,2.0,1.0,1.0,2.0,1.0,2.0,1.0,2.0,2.0,2.0,2.0,2.0,2.0,2.0,2.0,1.0,2.0,2.0,2.0,2.0,1.0,99.0,,,,,8.0,2.0,1.0,5.0,5.0,4.0,1.0,4.0,1.0,4.0,1.0,2.0,1.0,4.0,3.0,1.0,3.0,5.0,7.0,4.0,1.0,1.0,1.0,1.0,1.0,1.0,1.0,1.0,1.0,1.0,3,3.0,0.0,1.0,0.0,0.0,4.0,0.0,0.0,0.0,1.0,3.0,0.0,0.0,1.0,0.0,1.0,1.0,0.0,0.0,0.0,1.0,1.0,0.0,0.0,0.0,1.0,1.0,0.0,0.0,0.0,3.0,0.0,0.0,1.0,0.0,4.0,1.0,0.0,0.0,0.0,1.0,0.0,0.0,0.0,1.0,1.0,0.0,0.0,1.0,0.0,1.0,0.0,0.0,0.0,1.0,1.0,0.0,0.0,0.0,1.0,3.0,1.0,0.0,0.0,0.0,3.0,0.0,1.0,0.0,0.0,1.0,0.0,0.0,0.0,1.0,3.0,0.0,1.0,0.0,0.0,5.0,8.0,0.0,6.0,2.0,16.0,50.0, -   ,37.5, 12.50 ,50.0
3,31,24,02/06/2015,13:30:00,1,4,1,1,55.0,37.0,43.75,1,4,4,-6.0,36.0,16,2.0,16.0,27.0,38.0,52.0,64.0,76.0,89.0,101.0,115.0,120.0,-6.0,36.0,2.0,-31.0,34.0,2.0,9.0,32.0,3.0,-47.0,29.0,3.0,7.0,26.0,3.0,3.0,23.0,4.0,13.0,19.0,4.0,11.0,15.0,4.0,18.0,11.0,1.0,18.0,45.0,1.0,85.0,100.0,85.0,63.0,75.0,85.0,81.0,95.0,81.0,93.0,85.0,94.0,75.0,93.0,90.0,85.0,50.0,85.0,68.0,75.0,85.0,81.0,95.0,81.0,93.0,85.0,91.0,75.0,93.0,100.0,1.0,9.0,9.0,4.0,5.0,9.0,6.0,5.0,4.0,7.0,5.0,8.0,5.0,3.0,1.0,,82.0,75.0,90.0,45.0,78.0,22.0,52.0,86.0,75.0,38.0,53.0,48.0,93.0,73.0,30.0,27.0,22.0,24.0,31.0,41.0,31.0,90.0,61.0,75.0,33.0,26.0,28.0,22.0,40.0,38.0,95.0,94.0,29.0,28.0,94.0,39.0,49.0,11.0,41.0,49.0,75.0,99.0,57.0,52.0,77.0,88.0,48.0,95.0,99.0,40.0,41.0,58.0,68.0,5.0,44.0,73.0,42.0,57.0,67.0,56.0,52.0,39.0,82.0,32.0,47.0,58.0,77.0,32.0,76.0,48.0,57.0,42.0,34.0,24.0,50.0,53.0,30.0,112.0,85.0,116.0,117.0,146.0,115.0,103.0,132.0,92.0,97.0,104.0,114.0,79.0,102.0,121.0,81.0,84.0,117.0,119.0,138.0,156.0,174.0,73.0,67.0,85.0,1.0,1.0,2.0,1.0,1.0,1.0,2.0,1.0,2.0,2.0,1.0,2.0,2.0,2.0,1.0,2.0,2.0,2.0,1.0,1.0,1.0,1.0,2.0,2.0,2.0,99.0,,,,,1.0,1.0,2.0,5.0,2.0,3.0,0.0,4.0,1.0,11.0,0.0,2.0,2.0,2.0,3.0,1.0,3.0,10.0,10.0,10.0,5.0,5.0,6.0,10.0,5.0,1.0,5.0,8.0,2.0,5.0,3,1.0,1.0,0.0,0.0,0.0,1.0,1.0,0.0,0.0,0.0,3.0,0.0,0.0,1.0,0.0,3.0,0.0,0.0,1.0,0.0,4.0,0.0,0.0,0.0,1.0,1.0,1.0,0.0,0.0,0.0,3.0,0.0,0.0,1.0,0.0,4.0,1.0,0.0,0.0,0.0,2.0,1.0,0.0,0.0,0.0,3.0,0.0,0.0,0.0,1.0,2.0,1.0,0.0,0.0,0.0,1.0,0.0,0.0,0.0,1.0,3.0,1.0,0.0,0.0,0.0,3.0,0.0,1.0,0.0,0.0,1.0,0.0,0.0,0.0,1.0,3.0,0.0,1.0,0.0,0.0,30.0,5.0,2.0,7.0,2.0,16.0,31.25, 12.50 ,43.75, 12.50 ,56.25
3,4,25,02/06/2015,13:30:00,4,5,1,1,71.0,2.0,50.0,1,2,2,3.0,38.0,14,2.0,14.0,34.0,49.0,61.0,76.0,88.0,103.0,117.0,126.0,127.0,3.0,38.0,4.0,8.0,34.0,2.0,-14.0,32.0,3.0,15.0,29.0,1.0,17.0,28.0,1.0,18.0,27.0,0.0,14.0,27.0,0.0,16.0,27.0,0.0,13.0,27.0,1.0,18.0,45.0,1.0,85.0,100.0,85.0,68.0,88.0,91.0,93.0,99.0,81.0,96.0,93.0,100.0,75.0,96.0,94.0,68.0,50.0,85.0,58.0,63.0,72.0,63.0,91.0,81.0,81.0,78.0,90.0,75.0,91.0,81.0,3.0,9.0,9.0,5.0,3.0,6.0,3.0,8.0,4.0,4.0,7.0,9.0,5.0,2.0,4.0,,86.0,66.0,90.0,45.0,88.0,22.0,52.0,86.0,93.0,38.0,53.0,53.0,93.0,73.0,30.0,27.0,38.0,24.0,31.0,41.0,34.0,90.0,61.0,75.0,33.0,26.0,28.0,22.0,40.0,25.0,95.0,94.0,29.0,8.0,94.0,39.0,25.0,11.0,41.0,49.0,75.0,68.0,57.0,52.0,77.0,60.0,48.0,95.0,99.0,40.0,41.0,58.0,68.0,5.0,63.0,73.0,42.0,57.0,85.0,56.0,52.0,28.0,82.0,32.0,47.0,58.0,73.0,32.0,76.0,48.0,50.0,42.0,34.0,24.0,50.0,53.0,30.0,112.0,85.0,113.0,117.0,146.0,115.0,101.0,132.0,92.0,78.0,104.0,114.0,79.0,102.0,105.0,81.0,84.0,117.0,94.0,138.0,156.0,174.0,73.0,67.0,85.0,1.0,1.0,1.0,1.0,1.0,1.0,1.0,1.0,2.0,1.0,1.0,2.0,2.0,2.0,2.0,2.0,2.0,2.0,2.0,1.0,1.0,1.0,2.0,2.0,2.0,99.0,,,,,1.0,2.0,1.0,5.0,5.0,4.0,1.0,4.0,2.0,25.0,0.0,2.0,2.0,3.0,3.0,3.0,2.0,4.0,4.0,4.0,7.0,5.0,3.0,5.0,8.0,3.0,5.0,8.0,5.0,5.0,3,1.0,1.0,0.0,0.0,0.0,4.0,0.0,0.0,0.0,1.0,1.0,1.0,0.0,0.0,0.0,1.0,1.0,0.0,0.0,0.0,1.0,1.0,0.0,0.0,0.0,4.0,0.0,0.0,0.0,1.0,4.0,0.0,0.0,0.0,1.0,4.0,1.0,0.0,0.0,0.0,2.0,1.0,0.0,0.0,0.0,1.0,0.0,0.0,1.0,0.0,1.0,0.0,0.0,0.0,1.0,3.0,0.0,1.0,0.0,0.0,3.0,1.0,0.0,0.0,0.0,4.0,0.0,0.0,1.0,0.0,1.0,0.0,0.0,0.0,1.0,3.0,0.0,1.0,0.0,0.0,14.0,7.0,1.0,3.0,5.0,16.0,43.75, 6.25 ,18.75, 31.25 ,50.0
3,10,26,02/06/2015,13:30:00,4,5,1,1,67.0,10.0,68.75,1,2,2,10.0,38.0,14,2.0,14.0,34.0,49.0,61.0,76.0,88.0,103.0,117.0,126.0,127.0,10.0,38.0,2.0,-85.0,36.0,2.0,10.0,34.0,2.0,-1.0,32.0,2.0,16.0,30.0,2.0,10.0,28.0,2.0,12.0,26.0,4.0,8.0,22.0,0.0,6.0,22.0,0.0,18.0,45.0,1.0,85.0,100.0,85.0,81.0,100.0,100.0,100.0,100.0,100.0,90.0,100.0,100.0,100.0,100.0,100.0,85.0,50.0,85.0,26.0,50.0,50.0,50.0,90.0,70.0,100.0,70.0,90.0,50.0,90.0,50.0,1.0,9.0,9.0,8.0,1.0,1.0,1.0,9.0,1.0,9.0,9.0,9.0,9.0,1.0,9.0,,92.0,58.0,90.0,45.0,88.0,22.0,52.0,86.0,93.0,38.0,53.0,48.0,93.0,74.0,30.0,27.0,38.0,24.0,31.0,41.0,31.0,90.0,65.0,75.0,33.0,26.0,28.0,22.0,40.0,25.0,95.0,94.0,29.0,8.0,94.0,39.0,49.0,11.0,33.0,49.0,75.0,68.0,57.0,52.0,77.0,88.0,48.0,90.0,99.0,40.0,41.0,58.0,68.0,5.0,63.0,73.0,42.0,57.0,85.0,56.0,52.0,39.0,82.0,41.0,47.0,58.0,73.0,32.0,76.0,48.0,57.0,42.0,25.0,24.0,50.0,53.0,30.0,112.0,85.0,113.0,117.0,146.0,115.0,101.0,132.0,92.0,97.0,104.0,107.0,79.0,102.0,105.0,81.0,84.0,117.0,119.0,138.0,155.0,174.0,73.0,67.0,85.0,1.0,1.0,1.0,1.0,1.0,1.0,1.0,1.0,2.0,2.0,1.0,1.0,2.0,2.0,2.0,2.0,2.0,2.0,1.0,1.0,2.0,1.0,2.0,2.0,2.0,99.0,,,,,1.0,1.0,1.0,5.0,5.0,5.0,1.0,1.0,1.0,5.0,1.0,2.0,2.0,2.0,3.0,1.0,2.0,5.0,5.0,7.0,7.0,6.0,4.0,4.0,5.0,6.0,7.0,7.0,8.0,3.0,3,1.0,1.0,0.0,0.0,0.0,1.0,1.0,0.0,0.0,0.0,3.0,0.0,0.0,1.0,0.0,1.0,1.0,0.0,0.0,0.0,1.0,1.0,0.0,0.0,0.0,4.0,0.0,0.0,0.0,1.0,1.0,1.0,0.0,0.0,0.0,3.0,0.0,0.0,0.0,1.0,1.0,0.0,0.0,0.0,1.0,1.0,0.0,0.0,1.0,0.0,2.0,1.0,0.0,0.0,0.0,1.0,0.0,0.0,0.0,1.0,3.0,1.0,0.0,0.0,0.0,1.0,0.0,0.0,0.0,1.0,1.0,0.0,0.0,0.0,1.0,3.0,0.0,1.0,0.0,0.0,18.0,10.0,1.0,4.0,1.0,16.0,62.5, 6.25 ,25.0, 6.25 ,31.25
3,16,27,02/06/2015,13:30:00,4,5,1,1,59.0,15.0,68.75,1,2,2,-19.0,38.0,14,2.0,14.0,34.0,49.0,61.0,76.0,88.0,103.0,117.0,126.0,131.0,-19.0,38.0,4.0,0.0,34.0,4.0,11.0,30.0,2.0,12.0,28.0,3.0,4.0,25.0,1.0,8.0,24.0,4.0,10.0,20.0,3.0,12.0,17.0,3.0,15.0,14.0,0.0,18.0,45.0,1.0,85.0,98.0,76.0,72.0,88.0,89.0,96.0,95.0,69.0,96.0,93.0,88.0,75.0,100.0,99.0,33.0,46.0,89.0,47.0,63.0,76.0,56.0,95.0,89.0,81.0,78.0,93.0,75.0,90.0,56.0,7.0,8.0,7.0,6.0,3.0,7.0,2.0,5.0,6.0,4.0,7.0,7.0,5.0,1.0,8.0,,85.0,59.0,90.0,34.0,88.0,22.0,51.0,86.0,93.0,38.0,62.0,48.0,93.0,73.0,30.0,27.0,38.0,14.0,31.0,41.0,31.0,90.0,65.0,79.0,33.0,8.0,22.0,22.0,46.0,25.0,95.0,92.0,29.0,8.0,94.0,13.0,49.0,11.0,41.0,49.0,75.0,68.0,36.0,52.0,77.0,88.0,47.0,90.0,80.0,40.0,59.0,39.0,68.0,19.0,63.0,73.0,41.0,57.0,85.0,56.0,49.0,39.0,82.0,32.0,47.0,58.0,73.0,22.0,76.0,48.0,57.0,43.0,25.0,31.0,50.0,51.0,17.0,112.0,79.0,113.0,117.0,143.0,115.0,101.0,132.0,75.0,97.0,104.0,114.0,79.0,102.0,105.0,50.0,84.0,117.0,119.0,138.0,155.0,160.0,73.0,67.0,61.0,1.0,2.0,1.0,1.0,2.0,1.0,1.0,1.0,1.0,2.0,1.0,2.0,2.0,2.0,2.0,1.0,2.0,2.0,1.0,2.0,2.0,2.0,2.0,1.0,1.0,99.0,,,,,1.0,1.0,1.0,5.0,7.0,6.0,2.0,4.0,1.0,8.0,1.0,2.0,1.0,3.0,1.0,3.0,2.0,5.0,4.0,3.0,8.0,3.0,6.0,4.0,7.0,1.0,6.0,6.0,4.0,1.0,3,1.0,1.0,0.0,0.0,0.0,2.0,0.0,1.0,0.0,0.0,1.0,1.0,0.0,0.0,0.0,1.0,1.0,0.0,0.0,0.0,1.0,1.0,0.0,0.0,0.0,1.0,1.0,0.0,0.0,0.0,3.0,0.0,0.0,1.0,0.0,4.0,1.0,0.0,0.0,0.0,1.0,0.0,0.0,0.0,1.0,1.0,0.0,0.0,1.0,0.0,2.0,1.0,0.0,0.0,0.0,4.0,0.0,0.0,1.0,0.0,2.0,0.0,1.0,0.0,0.0,3.0,0.0,1.0,0.0,0.0,1.0,0.0,0.0,0.0,1.0,3.0,0.0,1.0,0.0,0.0,26.0,8.0,3.0,3.0,2.0,16.0,50.0, 18.75 ,18.75, 12.50 ,31.25
3,22,28,02/06/2015,13:30:00,4,5,1,1,50.0,36.0,43.75,1,3,3,2.0,37.0,14,2.0,14.0,34.0,49.0,61.0,76.0,88.0,103.0,117.0,126.0,131.0,2.0,37.0,4.0,-7.0,33.0,4.0,14.0,29.0,0.0,6.0,29.0,4.0,10.0,25.0,4.0,-2.0,21.0,4.0,11.0,17.0,4.0,13.0,13.0,4.0,18.0,9.0,4.0,18.0,45.0,1.0,85.0,100.0,76.0,63.0,81.0,87.0,78.0,96.0,100.0,96.0,78.0,81.0,69.0,81.0,91.0,85.0,50.0,89.0,68.0,69.0,81.0,88.0,94.0,70.0,81.0,93.0,94.0,81.0,96.0,94.0,1.0,9.0,7.0,4.0,4.0,8.0,7.0,6.0,1.0,4.0,3.0,6.0,4.0,6.0,2.0,,82.0,74.0,90.0,45.0,78.0,22.0,51.0,86.0,75.0,38.0,53.0,48.0,93.0,74.0,30.0,27.0,38.0,24.0,31.0,41.0,34.0,90.0,65.0,79.0,33.0,26.0,28.0,22.0,40.0,38.0,95.0,92.0,29.0,28.0,94.0,39.0,49.0,11.0,33.0,49.0,75.0,68.0,57.0,52.0,77.0,60.0,47.0,90.0,80.0,40.0,41.0,58.0,68.0,5.0,44.0,73.0,41.0,57.0,67.0,56.0,52.0,39.0,82.0,41.0,47.0,58.0,73.0,32.0,76.0,48.0,50.0,43.0,25.0,31.0,50.0,53.0,30.0,112.0,85.0,116.0,117.0,143.0,115.0,103.0,132.0,92.0,97.0,104.0,107.0,79.0,102.0,105.0,81.0,84.0,117.0,94.0,138.0,155.0,160.0,73.0,67.0,85.0,1.0,1.0,2.0,1.0,2.0,1.0,2.0,1.0,2.0,2.0,1.0,1.0,2.0,2.0,2.0,2.0,2.0,2.0,2.0,2.0,2.0,2.0,2.0,2.0,2.0,99.0,,,,,16.0,2.0,1.0,5.0,5.0,5.0,1.0,4.0,1.0,7.0,0.0,2.0,2.0,4.0,1.0,1.0,1.0,3.0,5.0,3.0,8.0,3.0,8.0,3.0,7.0,5.0,7.0,2.0,7.0,6.0,2,1.0,1.0,0.0,0.0,0.0,4.0,0.0,0.0,0.0,1.0,3.0,0.0,0.0,1.0,0.0,2.0,0.0,1.0,0.0,0.0,1.0,1.0,0.0,0.0,0.0,3.0,0.0,0.0,1.0,0.0,4.0,0.0,0.0,0.0,1.0,3.0,0.0,0.0,0.0,1.0,2.0,1.0,0.0,0.0,0.0,3.0,0.0,0.0,0.0,1.0,2.0,1.0,0.0,0.0,0.0,1.0,0.0,0.0,0.0,1.0,3.0,1.0,0.0,0.0,0.0,3.0,0.0,1.0,0.0,0.0,1.0,0.0,0.0,0.0,1.0,3.0,0.0,1.0,0.0,0.0,35.0,4.0,3.0,7.0,2.0,16.0,25.0, 18.75 ,43.75, 12.50 ,56.25
3,28,29,02/06/2015,13:30:00,4,5,1,1,51.0,2.0,62.5,1,4,4,-13.0,36.0,14,2.0,14.0,34.0,49.0,61.0,76.0,88.0,103.0,117.0,126.0,135.0,-13.0,36.0,4.0,7.0,32.0,2.0,11.0,30.0,3.0,-3.0,27.0,4.0,13.0,23.0,4.0,14.0,19.0,4.0,3.0,15.0,3.0,7.0,12.0,2.0,4.0,10.0,4.0,9.0,45.0,1.0,85.0,89.0,85.0,59.0,94.0,98.0,100.0,95.0,100.0,100.0,70.0,63.0,94.0,96.0,94.0,68.0,24.0,85.0,79.0,56.0,54.0,50.0,95.0,70.0,70.0,100.0,98.0,56.0,91.0,81.0,3.0,3.0,9.0,3.0,2.0,2.0,1.0,5.0,1.0,1.0,1.0,3.0,8.0,2.0,4.0,,85.0,61.0,90.0,45.0,88.0,22.0,52.0,86.0,93.0,38.0,53.0,48.0,93.0,73.0,11.0,27.0,22.0,24.0,31.0,41.0,31.0,90.0,61.0,75.0,33.0,26.0,28.0,22.0,40.0,25.0,95.0,94.0,29.0,8.0,94.0,39.0,49.0,11.0,41.0,61.0,75.0,99.0,57.0,52.0,77.0,88.0,48.0,95.0,99.0,40.0,41.0,58.0,68.0,5.0,63.0,73.0,42.0,57.0,85.0,56.0,52.0,39.0,82.0,32.0,50.0,58.0,77.0,32.0,76.0,48.0,57.0,42.0,34.0,24.0,50.0,53.0,30.0,112.0,85.0,113.0,117.0,146.0,115.0,101.0,132.0,92.0,97.0,104.0,114.0,72.0,102.0,121.0,81.0,84.0,117.0,119.0,138.0,156.0,174.0,73.0,67.0,85.0,1.0,1.0,1.0,1.0,1.0,1.0,1.0,1.0,2.0,2.0,1.0,2.0,1.0,2.0,1.0,2.0,2.0,2.0,1.0,1.0,1.0,1.0,2.0,2.0,2.0,99.0,,,,,1.0,1.0,3.0,2.0,2.0,3.0,0.0,4.0,1.0,9.0,0.0,2.0,2.0,3.0,3.0,1.0,2.0,5.0,10.0,5.0,10.0,1.0,10.0,1.0,10.0,1.0,10.0,1.0,10.0,1.0,3,2.0,0.0,0.0,1.0,0.0,1.0,1.0,0.0,0.0,0.0,4.0,0.0,0.0,0.0,1.0,1.0,1.0,0.0,0.0,0.0,1.0,1.0,0.0,0.0,0.0,1.0,1.0,0.0,0.0,0.0,2.0,0.0,1.0,0.0,0.0,3.0,0.0,0.0,0.0,1.0,1.0,0.0,0.0,0.0,1.0,4.0,0.0,1.0,0.0,0.0,1.0,0.0,0.0,0.0,1.0,3.0,0.0,1.0,0.0,0.0,1.0,0.0,0.0,0.0,1.0,4.0,0.0,0.0,1.0,0.0,1.0,0.0,0.0,0.0,1.0,3.0,0.0,1.0,0.0,0.0,34.0,8.0,2.0,3.0,3.0,16.0,50.0, 12.50 ,18.75, 18.75 ,37.5
3,34,30,02/06/2015,13:30:00,4,5,1,1,77.0,-78.0,43.75,1,1,1,7.0,39.0,14,2.0,14.0,34.0,49.0,61.0,76.0,88.0,103.0,117.0,126.0,131.0,7.0,39.0,2.0,2.0,37.0,1.0,7.0,36.0,2.0,-1.0,34.0,1.0,16.0,33.0,0.0,9.0,33.0,1.0,12.0,32.0,0.0,16.0,32.0,0.0,16.0,32.0,0.0,18.0,45.0,1.0,85.0,100.0,85.0,85.0,100.0,100.0,100.0,100.0,100.0,100.0,100.0,100.0,100.0,100.0,100.0,15.0,50.0,85.0,15.0,50.0,50.0,50.0,90.0,70.0,70.0,70.0,90.0,50.0,90.0,50.0,9.0,9.0,9.0,9.0,1.0,1.0,1.0,9.0,1.0,1.0,9.0,9.0,9.0,1.0,9.0,,,44.0,90.0,45.0,88.0,22.0,52.0,86.0,93.0,38.0,62.0,53.0,93.0,74.0,30.0,27.0,38.0,24.0,31.0,41.0,34.0,90.0,65.0,79.0,33.0,26.0,28.0,22.0,40.0,25.0,95.0,94.0,29.0,8.0,94.0,13.0,25.0,11.0,33.0,49.0,75.0,68.0,57.0,52.0,77.0,60.0,48.0,90.0,80.0,40.0,41.0,58.0,68.0,5.0,63.0,73.0,42.0,57.0,85.0,56.0,49.0,28.0,82.0,41.0,47.0,58.0,73.0,32.0,76.0,48.0,50.0,42.0,25.0,31.0,50.0,53.0,30.0,112.0,85.0,113.0,117.0,146.0,115.0,101.0,132.0,75.0,78.0,104.0,107.0,79.0,102.0,105.0,81.0,84.0,117.0,94.0,138.0,155.0,160.0,73.0,67.0,85.0,1.0,1.0,1.0,1.0,1.0,1.0,1.0,1.0,1.0,1.0,1.0,1.0,2.0,2.0,2.0,2.0,2.0,2.0,2.0,1.0,2.0,2.0,2.0,2.0,2.0,99.0,,,,,1.0,1.0,1.0,2.0,5.0,3.0,0.0,1.0,3.0,7.0,0.0,2.0,2.0,4.0,1.0,2.0,2.0,4.0,5.0,4.0,7.0,8.0,7.0,9.0,6.0,4.0,7.0,6.0,6.0,7.0,3,1.0,1.0,0.0,0.0,0.0,3.0,0.0,0.0,1.0,0.0,3.0,0.0,0.0,1.0,0.0,2.0,0.0,1.0,0.0,0.0,1.0,1.0,0.0,0.0,0.0,3.0,0.0,0.0,1.0,0.0,3.0,0.0,0.0,1.0,0.0,1.0,0.0,1.0,0.0,0.0,2.0,1.0,0.0,0.0,0.0,3.0,0.0,0.0,0.0,1.0,2.0,1.0,0.0,0.0,0.0,4.0,0.0,0.0,1.0,0.0,3.0,1.0,0.0,0.0,0.0,4.0,0.0,0.0,1.0,0.0,1.0,0.0,0.0,0.0,1.0,3.0,0.0,1.0,0.0,0.0,8.0,4.0,3.0,7.0,2.0,16.0,25.0, 18.75 ,43.75, 12.50 ,56.25
6,1,31,05/06/2015,13:30:00,1,6,1,1,62.0,25.0,68.75,1,1,1,0.0,39.0,12,2.0,12.0,26.0,37.0,55.0,69.0,79.0,92.0,102.0,109.0,121.0,0.0,39.0,2.0,14.0,37.0,3.0,8.0,34.0,4.0,17.0,30.0,1.0,11.0,29.0,2.0,17.0,27.0,3.0,15.0,24.0,4.0,18.0,20.0,1.0,9.0,19.0,2.0,5.0,45.0,1.0,85.0,85.0,59.0,59.0,100.0,93.0,96.0,93.0,50.0,90.0,100.0,50.0,88.0,74.0,100.0,76.0,15.0,96.0,79.0,50.0,68.0,56.0,98.0,100.0,100.0,70.0,100.0,63.0,99.0,50.0,2.0,1.0,3.0,3.0,1.0,5.0,2.0,3.0,9.0,9.0,9.0,1.0,7.0,8.0,9.0,,80.0,64.0,61.0,34.0,78.0,22.0,52.0,86.0,75.0,38.0,62.0,53.0,71.0,73.0,30.0,7.0,22.0,14.0,31.0,27.0,34.0,90.0,61.0,79.0,12.0,26.0,28.0,45.0,46.0,38.0,95.0,94.0,29.0,28.0,94.0,13.0,25.0,25.0,41.0,49.0,86.0,99.0,36.0,52.0,90.0,60.0,48.0,95.0,80.0,55.0,41.0,58.0,75.0,19.0,44.0,73.0,42.0,57.0,67.0,56.0,49.0,28.0,63.0,32.0,47.0,79.0,77.0,22.0,76.0,63.0,50.0,42.0,34.0,31.0,43.0,53.0,30.0,107.0,79.0,116.0,117.0,146.0,115.0,103.0,132.0,75.0,78.0,97.0,114.0,79.0,93.0,121.0,50.0,84.0,117.0,94.0,138.0,156.0,160.0,67.0,67.0,85.0,2.0,2.0,2.0,1.0,1.0,1.0,2.0,1.0,1.0,1.0,2.0,2.0,2.0,1.0,1.0,1.0,2.0,1.0,2.0,1.0,1.0,2.0,1.0,2.0,2.0,,,,,,1.0,1.0,1.0,5.0,5.0,3.0,0.0,4.0,1.0,4.0,0.0,2.0,1.0,3.0,3.0,3.0,1.0,2.0,5.0,4.0,5.0,5.0,8.0,8.0,6.0,9.0,9.0,6.0,4.0,9.0,1,3.0,0.0,1.0,0.0,0.0,1.0,1.0,0.0,0.0,0.0,1.0,1.0,0.0,0.0,0.0,1.0,1.0,0.0,0.0,0.0,1.0,1.0,0.0,0.0,0.0,1.0,1.0,0.0,0.0,0.0,3.0,0.0,0.0,1.0,0.0,3.0,0.0,0.0,0.0,1.0,2.0,1.0,0.0,0.0,0.0,1.0,0.0,0.0,1.0,0.0,2.0,1.0,0.0,0.0,0.0,1.0,0.0,0.0,0.0,1.0,2.0,0.0,1.0,0.0,0.0,3.0,0.0,1.0,0.0,0.0,1.0,0.0,0.0,0.0,1.0,3.0,0.0,1.0,0.0,0.0,23.0,8.0,3.0,5.0,0.0,16.0,50.0, 18.75 ,31.25, -   ,31.25
6,8,32,05/06/2015,13:30:00,1,6,1,1,65.0,15.0,37.5,1,2,2,-4.0,38.0,12,2.0,12.0,26.0,37.0,55.0,69.0,79.0,92.0,102.0,109.0,121.0,-4.0,38.0,4.0,-3.0,34.0,2.0,-7.0,32.0,4.0,13.0,28.0,3.0,11.0,25.0,4.0,17.0,21.0,0.0,8.0,21.0,0.0,17.0,21.0,0.0,18.0,21.0,1.0,17.0,45.0,1.0,85.0,100.0,59.0,68.0,94.0,89.0,78.0,95.0,69.0,95.0,96.0,69.0,50.0,96.0,90.0,15.0,50.0,96.0,58.0,56.0,76.0,88.0,95.0,89.0,85.0,74.0,96.0,100.0,91.0,100.0,9.0,9.0,3.0,5.0,2.0,7.0,7.0,5.0,6.0,5.0,8.0,4.0,1.0,2.0,1.0,,,,90.0,45.0,78.0,19.0,52.0,67.0,75.0,38.0,62.0,53.0,71.0,74.0,11.0,27.0,22.0,24.0,31.0,41.0,31.0,90.0,61.0,79.0,12.0,26.0,28.0,22.0,40.0,38.0,83.0,94.0,44.0,28.0,94.0,13.0,25.0,25.0,33.0,61.0,75.0,99.0,57.0,52.0,77.0,88.0,47.0,95.0,80.0,55.0,41.0,58.0,68.0,5.0,44.0,65.0,42.0,53.0,67.0,56.0,49.0,28.0,63.0,41.0,50.0,58.0,77.0,32.0,76.0,48.0,57.0,43.0,34.0,31.0,43.0,53.0,30.0,112.0,85.0,116.0,102.0,146.0,110.0,103.0,132.0,75.0,78.0,97.0,107.0,72.0,102.0,121.0,81.0,84.0,117.0,119.0,138.0,156.0,160.0,67.0,67.0,85.0,1.0,1.0,2.0,2.0,1.0,2.0,2.0,1.0,1.0,1.0,2.0,1.0,1.0,2.0,1.0,2.0,2.0,2.0,1.0,2.0,1.0,2.0,1.0,2.0,2.0,,,,,,1.0,2.0,1.0,5.0,5.0,6.0,1.0,4.0,1.0,6.0,0.0,2.0,2.0,4.0,3.0,1.0,1.0,3.0,4.0,3.0,10.0,1.0,10.0,1.0,10.0,1.0,10.0,10.0,1.0,1.0,2,3.0,0.0,1.0,0.0,0.0,3.0,0.0,0.0,1.0,0.0,3.0,0.0,0.0,1.0,0.0,2.0,0.0,1.0,0.0,0.0,1.0,1.0,0.0,0.0,0.0,4.0,0.0,0.0,0.0,1.0,3.0,0.0,0.0,1.0,0.0,4.0,1.0,0.0,0.0,0.0,2.0,1.0,0.0,0.0,0.0,4.0,0.0,1.0,0.0,0.0,1.0,0.0,0.0,0.0,1.0,2.0,1.0,0.0,0.0,0.0,3.0,1.0,0.0,0.0,0.0,3.0,0.0,1.0,0.0,0.0,1.0,0.0,0.0,0.0,1.0,3.0,0.0,1.0,0.0,0.0,20.0,3.0,3.0,7.0,3.0,16.0,18.75, 18.75 ,43.75, 18.75 ,62.5
6,15,33,05/06/2015,13:30:00,1,6,1,1,58.0,12.0,56.25,1,4,4,-8.0,36.0,12,2.0,12.0,26.0,37.0,55.0,69.0,79.0,92.0,102.0,109.0,121.0,-8.0,36.0,4.0,11.0,32.0,3.0,-2.0,29.0,4.0,11.0,25.0,3.0,15.0,22.0,0.0,16.0,22.0,3.0,-8.0,19.0,2.0,16.0,17.0,2.0,18.0,15.0,2.0,17.0,45.0,1.0,85.0,89.0,59.0,68.0,100.0,98.0,81.0,90.0,69.0,98.0,74.0,56.0,94.0,85.0,100.0,59.0,24.0,96.0,58.0,50.0,54.0,81.0,100.0,89.0,78.0,96.0,99.0,56.0,95.0,50.0,4.0,3.0,3.0,5.0,1.0,2.0,6.0,1.0,6.0,3.0,2.0,2.0,8.0,5.0,9.0,,83.0,57.0,61.0,34.0,78.0,22.0,51.0,86.0,93.0,31.0,53.0,53.0,93.0,74.0,30.0,27.0,38.0,24.0,3.0,27.0,34.0,90.0,61.0,75.0,33.0,8.0,28.0,45.0,46.0,38.0,95.0,92.0,29.0,8.0,74.0,39.0,25.0,11.0,33.0,49.0,75.0,68.0,57.0,76.0,90.0,60.0,47.0,95.0,99.0,40.0,59.0,58.0,75.0,19.0,44.0,73.0,41.0,57.0,85.0,43.0,52.0,28.0,82.0,41.0,47.0,58.0,73.0,32.0,73.0,63.0,50.0,43.0,34.0,24.0,50.0,51.0,30.0,107.0,79.0,116.0,117.0,143.0,115.0,101.0,105.0,92.0,78.0,104.0,107.0,79.0,102.0,105.0,81.0,79.0,117.0,94.0,138.0,156.0,174.0,73.0,67.0,85.0,2.0,2.0,2.0,1.0,2.0,1.0,1.0,2.0,2.0,1.0,1.0,1.0,2.0,2.0,2.0,2.0,1.0,1.0,2.0,2.0,1.0,1.0,2.0,1.0,2.0,,,,,,1.0,1.0,1.0,1.0,2.0,3.0,0.0,1.0,2.0,10.0,1.0,2.0,2.0,3.0,3.0,1.0,1.0,5.0,7.0,7.0,10.0,2.0,10.0,1.0,10.0,8.0,7.0,1.0,10.0,5.0,2,2.0,0.0,0.0,1.0,0.0,3.0,0.0,0.0,1.0,0.0,3.0,0.0,0.0,1.0,0.0,2.0,0.0,1.0,0.0,0.0,2.0,0.0,1.0,0.0,0.0,1.0,1.0,0.0,0.0,0.0,2.0,0.0,1.0,0.0,0.0,4.0,1.0,0.0,0.0,0.0,3.0,0.0,1.0,0.0,0.0,1.0,0.0,0.0,1.0,0.0,1.0,0.0,0.0,0.0,1.0,2.0,1.0,0.0,0.0,0.0,3.0,1.0,0.0,0.0,0.0,3.0,0.0,1.0,0.0,0.0,1.0,0.0,0.0,0.0,1.0,3.0,0.0,1.0,0.0,0.0,27.0,4.0,5.0,6.0,1.0,16.0,25.0, 31.25 ,37.5, 6.25 ,43.75
6,22,34,05/06/2015,13:30:00,1,6,1,1,71.0,26.0,50.0,1,1,1,-50.0,39.0,12,2.0,12.0,26.0,37.0,55.0,69.0,79.0,92.0,102.0,109.0,121.0,-50.0,39.0,1.0,8.0,38.0,1.0,-67.0,37.0,1.0,18.0,36.0,1.0,17.0,35.0,2.0,17.0,33.0,2.0,16.0,31.0,1.0,18.0,30.0,2.0,15.0,28.0,2.0,10.0,45.0,1.0,85.0,87.0,63.0,68.0,50.0,93.0,93.0,95.0,81.0,100.0,89.0,75.0,63.0,70.0,93.0,33.0,19.0,94.0,58.0,100.0,68.0,63.0,95.0,81.0,70.0,81.0,95.0,88.0,100.0,88.0,7.0,2.0,4.0,5.0,9.0,5.0,3.0,5.0,4.0,1.0,6.0,5.0,3.0,9.0,3.0,,74.0,62.0,90.0,34.0,78.0,19.0,51.0,67.0,93.0,38.0,53.0,48.0,93.0,74.0,30.0,27.0,38.0,24.0,3.0,41.0,31.0,90.0,65.0,79.0,33.0,26.0,28.0,22.0,46.0,38.0,83.0,92.0,44.0,8.0,94.0,39.0,49.0,11.0,33.0,49.0,75.0,68.0,57.0,76.0,77.0,88.0,48.0,90.0,80.0,40.0,41.0,58.0,68.0,19.0,44.0,65.0,41.0,53.0,85.0,56.0,52.0,39.0,82.0,41.0,47.0,58.0,73.0,32.0,73.0,48.0,57.0,42.0,25.0,31.0,50.0,53.0,30.0,112.0,79.0,116.0,102.0,143.0,110.0,101.0,132.0,92.0,97.0,104.0,107.0,79.0,102.0,105.0,81.0,79.0,117.0,119.0,138.0,155.0,160.0,73.0,67.0,85.0,1.0,2.0,2.0,2.0,2.0,2.0,1.0,1.0,2.0,2.0,1.0,1.0,2.0,2.0,2.0,2.0,1.0,2.0,1.0,1.0,2.0,2.0,2.0,2.0,2.0,,,,,,1.0,2.0,1.0,5.0,5.0,6.0,1.0,4.0,1.0,8.0,1.0,2.0,2.0,3.0,1.0,1.0,1.0,5.0,10.0,5.0,10.0,1.0,10.0,1.0,1.0,1.0,10.0,10.0,10.0,10.0,2,1.0,1.0,0.0,0.0,0.0,1.0,1.0,0.0,0.0,0.0,4.0,0.0,0.0,0.0,1.0,1.0,1.0,0.0,0.0,0.0,1.0,1.0,0.0,0.0,0.0,3.0,0.0,0.0,1.0,0.0,4.0,0.0,0.0,0.0,1.0,3.0,0.0,0.0,0.0,1.0,1.0,0.0,0.0,0.0,1.0,1.0,0.0,0.0,1.0,0.0,1.0,0.0,0.0,0.0,1.0,1.0,0.0,0.0,0.0,1.0,3.0,1.0,0.0,0.0,0.0,4.0,0.0,0.0,1.0,0.0,3.0,0.0,1.0,0.0,0.0,3.0,0.0,1.0,0.0,0.0,14.0,8.0,0.0,5.0,3.0,16.0,50.0, -   ,31.25, 18.75 ,50.0
6,29,35,05/06/2015,13:30:00,1,6,1,1,71.0,42.0,56.25,1,2,2,15.0,38.0,12,2.0,12.0,26.0,37.0,55.0,69.0,79.0,92.0,102.0,109.0,121.0,15.0,38.0,2.0,15.0,36.0,1.0,16.0,35.0,1.0,16.0,34.0,2.0,18.0,32.0,1.0,15.0,31.0,1.0,15.0,30.0,2.0,18.0,28.0,1.0,17.0,27.0,1.0,18.0,45.0,1.0,85.0,85.0,85.0,54.0,56.0,85.0,85.0,99.0,94.0,95.0,85.0,75.0,75.0,70.0,95.0,68.0,15.0,85.0,89.0,94.0,85.0,75.0,91.0,74.0,85.0,85.0,95.0,75.0,100.0,75.0,3.0,1.0,9.0,2.0,8.0,9.0,5.0,8.0,2.0,5.0,5.0,5.0,5.0,9.0,5.0,,75.0,73.0,90.0,45.0,78.0,22.0,51.0,67.0,75.0,38.0,53.0,48.0,71.0,73.0,30.0,27.0,38.0,14.0,31.0,41.0,34.0,90.0,65.0,75.0,33.0,26.0,22.0,22.0,40.0,38.0,95.0,92.0,44.0,28.0,94.0,39.0,49.0,25.0,41.0,49.0,75.0,68.0,36.0,52.0,77.0,60.0,48.0,90.0,99.0,40.0,41.0,39.0,68.0,5.0,44.0,73.0,41.0,53.0,67.0,56.0,52.0,39.0,63.0,32.0,47.0,58.0,73.0,22.0,76.0,48.0,50.0,42.0,25.0,24.0,50.0,53.0,17.0,112.0,85.0,116.0,117.0,143.0,110.0,103.0,132.0,92.0,97.0,97.0,114.0,79.0,102.0,105.0,50.0,84.0,117.0,94.0,138.0,155.0,174.0,73.0,67.0,61.0,1.0,1.0,2.0,1.0,2.0,2.0,2.0,1.0,2.0,2.0,2.0,2.0,2.0,2.0,2.0,1.0,2.0,2.0,2.0,1.0,2.0,1.0,2.0,2.0,1.0,,,,,,1.0,2.0,1.0,5.0,5.0,7.0,2.0,4.0,2.0,30.0,1.0,2.0,2.0,3.0,1.0,2.0,1.0,6.0,10.0,8.0,8.0,2.0,5.0,2.0,3.0,2.0,10.0,6.0,3.0,5.0,1,3.0,0.0,1.0,0.0,0.0,1.0,1.0,0.0,0.0,0.0,3.0,0.0,0.0,1.0,0.0,1.0,1.0,0.0,0.0,0.0,2.0,0.0,1.0,0.0,0.0,1.0,1.0,0.0,0.0,0.0,1.0,1.0,0.0,0.0,0.0,4.0,1.0,0.0,0.0,0.0,2.0,1.0,0.0,0.0,0.0,1.0,0.0,0.0,1.0,0.0,1.0,0.0,0.0,0.0,1.0,4.0,0.0,0.0,1.0,0.0,3.0,1.0,0.0,0.0,0.0,3.0,0.0,1.0,0.0,0.0,1.0,0.0,0.0,0.0,1.0,3.0,0.0,1.0,0.0,0.0,14.0,7.0,2.0,5.0,2.0,16.0,43.75, 12.50 ,31.25, 12.50 ,43.75
6,36,36,05/06/2015,13:30:00,1,6,1,1,62.0,34.0,50.0,1,2,2,1.0,38.0,12,2.0,12.0,26.0,37.0,55.0,69.0,79.0,92.0,102.0,109.0,121.0,1.0,38.0,1.0,-2.0,37.0,1.0,-2.0,36.0,4.0,10.0,32.0,4.0,0.0,28.0,1.0,-2.0,27.0,4.0,6.0,23.0,1.0,-5.0,22.0,1.0,-3.0,21.0,4.0,15.0,45.0,1.0,85.0,100.0,85.0,63.0,81.0,87.0,70.0,90.0,88.0,96.0,89.0,50.0,81.0,85.0,94.0,85.0,50.0,85.0,68.0,69.0,81.0,100.0,100.0,78.0,81.0,81.0,100.0,69.0,95.0,81.0,1.0,9.0,9.0,4.0,4.0,8.0,9.0,1.0,3.0,4.0,6.0,1.0,6.0,5.0,4.0,,,73.0,90.0,45.0,78.0,19.0,51.0,86.0,75.0,31.0,53.0,48.0,93.0,73.0,30.0,27.0,22.0,14.0,31.0,41.0,34.0,90.0,65.0,75.0,33.0,26.0,22.0,22.0,40.0,38.0,83.0,92.0,29.0,28.0,74.0,39.0,49.0,11.0,41.0,49.0,75.0,99.0,36.0,52.0,77.0,60.0,48.0,90.0,99.0,40.0,41.0,39.0,68.0,5.0,44.0,65.0,41.0,57.0,67.0,43.0,52.0,39.0,82.0,32.0,47.0,58.0,77.0,22.0,76.0,48.0,50.0,42.0,25.0,24.0,50.0,53.0,17.0,112.0,85.0,116.0,102.0,143.0,115.0,103.0,105.0,92.0,97.0,104.0,114.0,79.0,102.0,121.0,50.0,84.0,117.0,94.0,138.0,155.0,174.0,73.0,67.0,61.0,1.0,1.0,2.0,2.0,2.0,1.0,2.0,2.0,2.0,2.0,1.0,2.0,2.0,2.0,1.0,1.0,2.0,2.0,2.0,1.0,2.0,1.0,2.0,2.0,1.0,,,,,,1.0,1.0,1.0,2.0,1.0,4.0,0.0,1.0,1.0,9.0,0.0,2.0,2.0,3.0,1.0,1.0,1.0,5.0,7.0,5.0,10.0,1.0,10.0,1.0,10.0,1.0,10.0,1.0,10.0,1.0,2,1.0,1.0,0.0,0.0,0.0,1.0,1.0,0.0,0.0,0.0,3.0,0.0,0.0,1.0,0.0,2.0,0.0,1.0,0.0,0.0,2.0,0.0,1.0,0.0,0.0,4.0,0.0,0.0,0.0,1.0,4.0,0.0,0.0,0.0,1.0,4.0,1.0,0.0,0.0,0.0,2.0,1.0,0.0,0.0,0.0,3.0,0.0,0.0,0.0,1.0,1.0,0.0,0.0,0.0,1.0,4.0,0.0,0.0,1.0,0.0,3.0,1.0,0.0,0.0,0.0,4.0,0.0,0.0,1.0,0.0,1.0,0.0,0.0,0.0,1.0,2.0,1.0,0.0,0.0,0.0,23.0,4.0,4.0,3.0,5.0,16.0,25.0, 25.00 ,18.75, 31.25 ,50.0
6,2,37,05/06/2015,13:30:00,2,7,1,2,30.0,11.0,56.25,1,2,2,-4.0,38.0,16,2.0,16.0,29.0,43.0,56.0,64.0,72.0,82.0,93.0,104.0,117.0,-4.0,38.0,2.0,14.0,36.0,1.0,8.0,35.0,1.0,15.0,34.0,1.0,9.0,33.0,1.0,18.0,32.0,0.0,17.0,32.0,0.0,16.0,32.0,1.0,11.0,31.0,1.0,14.0,0.0,1.0,85.0,94.0,85.0,76.0,94.0,91.0,93.0,98.0,94.0,99.0,96.0,94.0,88.0,100.0,96.0,59.0,37.0,85.0,36.0,56.0,72.0,63.0,93.0,74.0,74.0,74.0,91.0,63.0,90.0,69.0,4.0,6.0,9.0,7.0,2.0,6.0,3.0,7.0,2.0,2.0,8.0,8.0,7.0,1.0,6.0,,,,90.0,45.0,78.0,19.0,52.0,86.0,75.0,38.0,62.0,53.0,71.0,74.0,30.0,27.0,38.0,24.0,31.0,41.0,34.0,90.0,61.0,79.0,33.0,26.0,28.0,22.0,40.0,38.0,83.0,94.0,29.0,28.0,94.0,13.0,25.0,25.0,33.0,49.0,75.0,68.0,57.0,52.0,77.0,60.0,47.0,95.0,80.0,40.0,41.0,58.0,68.0,5.0,44.0,65.0,42.0,57.0,67.0,56.0,49.0,28.0,63.0,41.0,47.0,58.0,73.0,32.0,76.0,48.0,50.0,43.0,34.0,31.0,50.0,53.0,30.0,112.0,85.0,116.0,102.0,146.0,115.0,103.0,132.0,75.0,78.0,97.0,107.0,79.0,102.0,105.0,81.0,84.0,117.0,94.0,138.0,156.0,160.0,73.0,67.0,85.0,1.0,1.0,2.0,2.0,1.0,1.0,2.0,1.0,1.0,1.0,2.0,1.0,2.0,2.0,2.0,2.0,2.0,2.0,2.0,2.0,1.0,2.0,2.0,2.0,2.0,,,,,,1.0,2.0,1.0,5.0,5.0,5.0,1.0,4.0,1.0,6.0,0.0,2.0,2.0,3.0,1.0,3.0,3.0,3.0,5.0,3.0,6.0,5.0,6.0,4.0,6.0,5.0,5.0,4.0,5.0,6.0,1,4.0,0.0,0.0,0.0,1.0,4.0,0.0,0.0,0.0,1.0,2.0,0.0,1.0,0.0,0.0,1.0,1.0,0.0,0.0,0.0,2.0,0.0,1.0,0.0,0.0,3.0,0.0,0.0,1.0,0.0,1.0,1.0,0.0,0.0,0.0,3.0,0.0,0.0,0.0,1.0,2.0,1.0,0.0,0.0,0.0,1.0,0.0,0.0,1.0,0.0,1.0,0.0,0.0,0.0,1.0,4.0,0.0,0.0,1.0,0.0,3.0,1.0,0.0,0.0,0.0,3.0,0.0,1.0,0.0,0.0,1.0,0.0,0.0,0.0,1.0,2.0,1.0,0.0,0.0,0.0,10.0,5.0,4.0,4.0,3.0,16.0,31.25, 25.00 ,25.0, 18.75 ,43.75
6,9,38,05/06/2015,13:30:00,2,7,1,2,36.0,0.0,43.75,1,2,2,-26.0,38.0,16,2.0,16.0,29.0,43.0,56.0,64.0,72.0,82.0,93.0,104.0,117.0,-26.0,38.0,1.0,6.0,37.0,1.0,14.0,36.0,0.0,15.0,36.0,0.0,17.0,36.0,0.0,9.0,36.0,0.0,18.0,36.0,0.0,14.0,36.0,0.0,8.0,36.0,0.0,16.0,0.0,1.0,85.0,98.0,76.0,85.0,100.0,85.0,100.0,93.0,81.0,94.0,100.0,100.0,100.0,81.0,94.0,15.0,46.0,89.0,15.0,50.0,85.0,50.0,98.0,81.0,89.0,70.0,90.0,50.0,96.0,81.0,9.0,8.0,7.0,9.0,1.0,9.0,1.0,3.0,4.0,6.0,9.0,9.0,9.0,6.0,4.0,,88.0,50.0,90.0,45.0,78.0,22.0,52.0,86.0,93.0,38.0,53.0,53.0,93.0,74.0,30.0,27.0,22.0,24.0,31.0,41.0,34.0,90.0,65.0,79.0,33.0,26.0,28.0,22.0,40.0,38.0,95.0,94.0,29.0,8.0,94.0,39.0,25.0,11.0,33.0,49.0,75.0,99.0,57.0,52.0,77.0,60.0,47.0,90.0,80.0,40.0,41.0,58.0,68.0,5.0,44.0,73.0,42.0,57.0,85.0,56.0,52.0,28.0,82.0,41.0,47.0,58.0,77.0,32.0,76.0,48.0,50.0,43.0,25.0,31.0,50.0,53.0,30.0,112.0,85.0,116.0,117.0,146.0,115.0,101.0,132.0,92.0,78.0,104.0,107.0,79.0,102.0,121.0,81.0,84.0,117.0,94.0,138.0,155.0,160.0,73.0,67.0,85.0,1.0,1.0,2.0,1.0,1.0,1.0,1.0,1.0,2.0,1.0,1.0,1.0,2.0,2.0,1.0,2.0,2.0,2.0,2.0,2.0,2.0,2.0,2.0,2.0,2.0,,,,,,1.0,1.0,1.0,1.0,1.0,3.0,0.0,1.0,2.0,9.0,2.0,2.0,2.0,4.0,3.0,1.0,2.0,3.0,3.0,4.0,3.0,2.0,4.0,5.0,4.0,6.0,5.0,4.0,4.0,2.0,2,4.0,0.0,0.0,0.0,1.0,3.0,0.0,0.0,1.0,0.0,3.0,0.0,0.0,1.0,0.0,1.0,1.0,0.0,0.0,0.0,1.0,1.0,0.0,0.0,0.0,1.0,1.0,0.0,0.0,0.0,3.0,0.0,0.0,1.0,0.0,2.0,0.0,0.0,1.0,0.0,1.0,0.0,0.0,0.0,1.0,4.0,0.0,1.0,0.0,0.0,2.0,1.0,0.0,0.0,0.0,4.0,0.0,0.0,1.0,0.0,3.0,1.0,0.0,0.0,0.0,3.0,0.0,1.0,0.0,0.0,1.0,0.0,0.0,0.0,1.0,3.0,0.0,1.0,0.0,0.0,4.0,5.0,2.0,6.0,3.0,16.0,31.25, 12.50 ,37.5, 18.75 ,56.25
6,16,39,05/06/2015,13:30:00,2,7,1,2,14.0,26.0,43.75,1,2,2,-3.0,38.0,16,2.0,16.0,29.0,43.0,56.0,64.0,72.0,82.0,93.0,104.0,117.0,-3.0,38.0,2.0,-19.0,36.0,4.0,8.0,32.0,2.0,6.0,30.0,0.0,17.0,30.0,0.0,14.0,30.0,4.0,16.0,26.0,4.0,13.0,22.0,4.0,12.0,18.0,4.0,8.0,0.0,1.0,85.0,100.0,81.0,63.0,88.0,98.0,89.0,94.0,75.0,98.0,81.0,81.0,94.0,89.0,91.0,85.0,50.0,87.0,68.0,63.0,54.0,69.0,96.0,85.0,78.0,89.0,94.0,56.0,94.0,94.0,1.0,9.0,8.0,4.0,3.0,2.0,4.0,4.0,5.0,3.0,4.0,6.0,8.0,4.0,2.0,,86.0,68.0,90.0,45.0,88.0,19.0,52.0,67.0,93.0,38.0,53.0,53.0,93.0,73.0,30.0,27.0,22.0,24.0,31.0,41.0,31.0,90.0,65.0,75.0,33.0,26.0,22.0,22.0,40.0,25.0,83.0,94.0,44.0,8.0,94.0,39.0,25.0,11.0,41.0,49.0,75.0,99.0,57.0,52.0,77.0,88.0,47.0,90.0,99.0,40.0,41.0,39.0,68.0,5.0,63.0,65.0,42.0,53.0,85.0,56.0,52.0,28.0,82.0,32.0,47.0,58.0,77.0,32.0,76.0,48.0,57.0,43.0,25.0,24.0,50.0,53.0,17.0,112.0,85.0,113.0,102.0,146.0,110.0,101.0,132.0,92.0,78.0,104.0,114.0,79.0,102.0,121.0,81.0,84.0,117.0,119.0,138.0,155.0,174.0,73.0,67.0,61.0,1.0,1.0,1.0,2.0,1.0,2.0,1.0,1.0,2.0,1.0,1.0,2.0,2.0,2.0,1.0,2.0,2.0,2.0,1.0,2.0,2.0,1.0,2.0,2.0,1.0,,,,,,1.0,1.0,1.0,2.0,2.0,3.0,0.0,2.0,1.0,10.0,0.0,2.0,2.0,2.0,1.0,1.0,1.0,2.0,3.0,3.0,10.0,2.0,8.0,1.0,9.0,4.0,9.0,3.0,6.0,2.0,2,3.0,0.0,1.0,0.0,0.0,1.0,1.0,0.0,0.0,0.0,1.0,1.0,0.0,0.0,0.0,1.0,1.0,0.0,0.0,0.0,1.0,1.0,0.0,0.0,0.0,3.0,0.0,0.0,1.0,0.0,3.0,0.0,0.0,1.0,0.0,4.0,1.0,0.0,0.0,0.0,1.0,0.0,0.0,0.0,1.0,3.0,0.0,0.0,0.0,1.0,1.0,0.0,0.0,0.0,1.0,1.0,0.0,0.0,0.0,1.0,3.0,1.0,0.0,0.0,0.0,3.0,0.0,1.0,0.0,0.0,3.0,0.0,1.0,0.0,0.0,3.0,0.0,1.0,0.0,0.0,26.0,7.0,0.0,8.0,1.0,16.0,43.75, -   ,50.0, 6.25 ,56.25
6,23,40,05/06/2015,13:30:00,2,7,1,2,63.0,23.0,50.0,1,4,4,-8.0,36.0,16,2.0,16.0,29.0,43.0,56.0,64.0,72.0,82.0,93.0,104.0,117.0,-8.0,36.0,2.0,6.0,34.0,2.0,10.0,32.0,4.0,-10.0,28.0,2.0,15.0,26.0,1.0,14.0,25.0,2.0,17.0,23.0,2.0,14.0,21.0,1.0,16.0,20.0,2.0,14.0,45.0,1.0,85.0,100.0,76.0,68.0,75.0,94.0,85.0,95.0,94.0,95.0,89.0,94.0,81.0,89.0,94.0,50.0,50.0,89.0,58.0,75.0,63.0,75.0,95.0,74.0,85.0,81.0,91.0,69.0,94.0,81.0,5.0,9.0,7.0,5.0,5.0,4.0,5.0,5.0,2.0,5.0,6.0,8.0,6.0,4.0,4.0,,83.0,64.0,90.0,45.0,88.0,19.0,52.0,86.0,93.0,38.0,62.0,53.0,93.0,74.0,30.0,7.0,38.0,24.0,31.0,27.0,34.0,90.0,65.0,75.0,33.0,26.0,22.0,22.0,40.0,25.0,83.0,94.0,29.0,8.0,94.0,13.0,25.0,11.0,33.0,49.0,86.0,68.0,57.0,52.0,90.0,60.0,48.0,90.0,99.0,40.0,41.0,39.0,68.0,5.0,63.0,65.0,42.0,57.0,85.0,56.0,49.0,28.0,82.0,41.0,47.0,79.0,73.0,32.0,76.0,63.0,50.0,42.0,25.0,24.0,50.0,53.0,17.0,112.0,85.0,113.0,102.0,146.0,115.0,101.0,132.0,75.0,78.0,104.0,107.0,79.0,93.0,105.0,81.0,84.0,117.0,94.0,138.0,155.0,174.0,73.0,67.0,61.0,1.0,1.0,1.0,2.0,1.0,1.0,1.0,1.0,1.0,1.0,1.0,1.0,2.0,1.0,2.0,2.0,2.0,1.0,2.0,1.0,2.0,1.0,2.0,2.0,1.0,,,,,,1.0,2.0,2.0,5.0,2.0,5.0,2.0,4.0,2.0,15.0,2.0,2.0,2.0,3.0,1.0,1.0,1.0,5.0,10.0,8.0,8.0,3.0,5.0,7.0,4.0,7.0,8.0,5.0,5.0,4.0,1,4.0,0.0,0.0,0.0,1.0,4.0,0.0,0.0,0.0,1.0,1.0,1.0,0.0,0.0,0.0,1.0,1.0,0.0,0.0,0.0,1.0,1.0,0.0,0.0,0.0,3.0,0.0,0.0,1.0,0.0,4.0,0.0,0.0,0.0,1.0,4.0,1.0,0.0,0.0,0.0,1.0,0.0,0.0,0.0,1.0,1.0,0.0,0.0,1.0,0.0,2.0,1.0,0.0,0.0,0.0,1.0,0.0,0.0,0.0,1.0,3.0,1.0,0.0,0.0,0.0,3.0,0.0,1.0,0.0,0.0,1.0,0.0,0.0,0.0,1.0,3.0,0.0,1.0,0.0,0.0,22.0,7.0,1.0,4.0,4.0,16.0,43.75, 6.25 ,25.0, 25.00 ,50.0
6,30,41,05/06/2015,13:30:00,2,7,1,2,4.0,4.0,68.75,1,4,4,-10.0,36.0,16,2.0,16.0,29.0,43.0,56.0,64.0,72.0,82.0,93.0,104.0,117.0,-10.0,36.0,3.0,-4.0,33.0,3.0,4.0,30.0,4.0,16.0,26.0,4.0,15.0,22.0,4.0,10.0,18.0,3.0,10.0,15.0,4.0,8.0,11.0,3.0,12.0,8.0,4.0,14.0,0.0,1.0,85.0,100.0,68.0,63.0,75.0,85.0,81.0,95.0,81.0,93.0,85.0,94.0,75.0,93.0,98.0,85.0,50.0,93.0,68.0,75.0,85.0,81.0,95.0,81.0,93.0,85.0,91.0,75.0,93.0,63.0,1.0,9.0,5.0,4.0,5.0,9.0,6.0,5.0,4.0,7.0,5.0,8.0,5.0,3.0,7.0,,79.0,76.0,90.0,45.0,88.0,19.0,0.0,86.0,93.0,38.0,62.0,53.0,93.0,73.0,11.0,7.0,22.0,14.0,3.0,41.0,31.0,90.0,65.0,75.0,12.0,26.0,22.0,22.0,40.0,25.0,83.0,0.0,29.0,8.0,94.0,13.0,25.0,11.0,41.0,61.0,86.0,99.0,36.0,76.0,77.0,88.0,48.0,90.0,99.0,55.0,41.0,39.0,68.0,5.0,63.0,65.0,0.0,57.0,85.0,56.0,49.0,28.0,82.0,32.0,50.0,79.0,77.0,22.0,73.0,48.0,57.0,42.0,25.0,24.0,43.0,53.0,17.0,112.0,85.0,113.0,102.0,0.0,115.0,101.0,132.0,75.0,78.0,104.0,114.0,72.0,93.0,121.0,50.0,79.0,117.0,119.0,138.0,155.0,174.0,67.0,67.0,61.0,1.0,1.0,1.0,2.0,0.0,1.0,1.0,1.0,1.0,1.0,1.0,2.0,1.0,1.0,1.0,1.0,1.0,2.0,1.0,1.0,2.0,1.0,1.0,2.0,1.0,,,,,,1.0,1.0,1.0,2.0,2.0,5.0,6.0,1.0,2.0,10.0,1.0,2.0,2.0,3.0,1.0,1.0,1.0,4.0,8.0,8.0,10.0,5.0,4.0,2.0,8.0,1.0,9.0,5.0,4.0,1.0,2,1.0,1.0,0.0,0.0,0.0,1.0,1.0,0.0,0.0,0.0,4.0,0.0,0.0,0.0,1.0,1.0,1.0,0.0,0.0,0.0,1.0,1.0,0.0,0.0,0.0,1.0,1.0,0.0,0.0,0.0,1.0,1.0,0.0,0.0,0.0,4.0,1.0,0.0,0.0,0.0,1.0,0.0,0.0,0.0,1.0,1.0,0.0,0.0,1.0,0.0,2.0,1.0,0.0,0.0,0.0,4.0,0.0,0.0,1.0,0.0,3.0,1.0,0.0,0.0,0.0,4.0,0.0,0.0,1.0,0.0,1.0,0.0,0.0,0.0,1.0,2.0,1.0,0.0,0.0,0.0,36.0,9.0,2.0,1.0,4.0,16.0,56.25, 12.50 ,6.25, 25.00 ,31.25
6,37,42,05/06/2015,13:30:00,2,7,1,2,21.0,29.0,37.5,1,2,2,-18.0,38.0,16,2.0,16.0,29.0,43.0,56.0,64.0,72.0,82.0,93.0,104.0,117.0,-18.0,38.0,3.0,-2.0,35.0,3.0,13.0,32.0,2.0,10.0,30.0,1.0,11.0,29.0,2.0,7.0,27.0,1.0,8.0,26.0,1.0,6.0,25.0,2.0,-1.0,23.0,2.0,5.0,0.0,1.0,85.0,96.0,81.0,68.0,81.0,91.0,85.0,90.0,88.0,91.0,81.0,75.0,75.0,93.0,94.0,85.0,41.0,87.0,58.0,69.0,72.0,75.0,100.0,78.0,96.0,89.0,95.0,75.0,93.0,81.0,1.0,7.0,8.0,5.0,4.0,6.0,5.0,1.0,3.0,8.0,4.0,5.0,5.0,3.0,4.0,,84.0,69.0,61.0,45.0,78.0,22.0,52.0,67.0,75.0,38.0,53.0,53.0,71.0,73.0,30.0,27.0,22.0,24.0,31.0,41.0,31.0,90.0,61.0,79.0,12.0,8.0,28.0,45.0,40.0,38.0,95.0,94.0,44.0,28.0,94.0,39.0,25.0,25.0,41.0,49.0,75.0,99.0,57.0,52.0,77.0,88.0,48.0,95.0,80.0,55.0,59.0,58.0,75.0,5.0,44.0,73.0,42.0,53.0,67.0,56.0,52.0,28.0,63.0,32.0,47.0,58.0,77.0,32.0,76.0,48.0,57.0,42.0,34.0,31.0,43.0,51.0,30.0,107.0,85.0,116.0,117.0,146.0,110.0,103.0,132.0,92.0,78.0,97.0,114.0,79.0,102.0,121.0,81.0,84.0,117.0,119.0,138.0,156.0,160.0,67.0,67.0,85.0,2.0,1.0,2.0,1.0,1.0,2.0,2.0,1.0,2.0,1.0,2.0,2.0,2.0,2.0,1.0,2.0,2.0,2.0,1.0,1.0,1.0,2.0,1.0,1.0,2.0,,,,,,1.0,1.0,1.0,5.0,5.0,3.0,6.0,4.0,3.0,6.0,1.0,2.0,2.0,3.0,1.0,3.0,2.0,3.0,7.0,3.0,8.0,8.0,7.0,7.0,8.0,3.0,8.0,7.0,3.0,6.0,1,3.0,0.0,1.0,0.0,0.0,3.0,0.0,0.0,1.0,0.0,3.0,0.0,0.0,1.0,0.0,1.0,1.0,0.0,0.0,0.0,2.0,0.0,1.0,0.0,0.0,3.0,0.0,0.0,1.0,0.0,4.0,0.0,0.0,0.0,1.0,3.0,0.0,0.0,0.0,1.0,1.0,0.0,0.0,0.0,1.0,3.0,0.0,0.0,0.0,1.0,2.0,1.0,0.0,0.0,0.0,1.0,0.0,0.0,0.0,1.0,3.0,1.0,0.0,0.0,0.0,3.0,0.0,1.0,0.0,0.0,1.0,0.0,0.0,0.0,1.0,3.0,0.0,1.0,0.0,0.0,19.0,4.0,2.0,9.0,1.0,16.0,25.0, 12.50 ,56.25, 6.25 ,62.5
8,1,43,08/06/2015,18:30:00,1,8,1,1,61.0,17.0,56.25,1,2,2,0.0,38.0,17,2.0,17.0,33.0,46.0,57.0,66.0,76.0,88.0,99.0,112.0,124.0,0.0,38.0,3.0,7.0,35.0,3.0,-2.0,32.0,2.0,-2.0,30.0,1.0,13.0,29.0,1.0,14.0,28.0,2.0,11.0,26.0,3.0,9.0,23.0,4.0,12.0,19.0,3.0,5.0,45.0,2.0,85.0,91.0,59.0,81.0,81.0,98.0,81.0,98.0,88.0,98.0,89.0,94.0,88.0,89.0,91.0,85.0,28.0,96.0,26.0,69.0,54.0,81.0,93.0,78.0,78.0,81.0,91.0,63.0,94.0,94.0,1.0,4.0,3.0,8.0,4.0,2.0,6.0,7.0,3.0,3.0,6.0,8.0,7.0,4.0,2.0,,82.0,60.0,90.0,45.0,78.0,22.0,52.0,86.0,75.0,38.0,53.0,48.0,93.0,73.0,30.0,27.0,22.0,24.0,31.0,41.0,34.0,90.0,65.0,79.0,33.0,26.0,28.0,22.0,40.0,38.0,95.0,94.0,29.0,28.0,94.0,39.0,49.0,11.0,41.0,49.0,75.0,99.0,57.0,52.0,77.0,60.0,48.0,90.0,80.0,40.0,41.0,58.0,68.0,5.0,44.0,73.0,42.0,57.0,67.0,56.0,52.0,39.0,82.0,32.0,47.0,58.0,77.0,32.0,76.0,48.0,50.0,42.0,25.0,31.0,50.0,53.0,30.0,112.0,85.0,116.0,117.0,146.0,115.0,103.0,132.0,92.0,97.0,104.0,114.0,79.0,102.0,121.0,81.0,84.0,117.0,94.0,138.0,155.0,160.0,73.0,67.0,85.0,1.0,1.0,2.0,1.0,1.0,1.0,2.0,1.0,2.0,2.0,1.0,2.0,2.0,2.0,1.0,2.0,2.0,2.0,2.0,1.0,2.0,2.0,2.0,2.0,2.0,,,,,,14.0,2.0,1.0,5.0,5.0,7.0,1.0,4.0,1.0,9.0,1.0,2.0,2.0,4.0,1.0,1.0,1.0,5.0,10.0,6.0,8.0,4.0,9.0,1.0,9.0,4.0,10.0,1.0,8.0,4.0,2,1.0,1.0,0.0,0.0,0.0,3.0,0.0,0.0,1.0,0.0,1.0,1.0,0.0,0.0,0.0,1.0,1.0,0.0,0.0,0.0,1.0,1.0,0.0,0.0,0.0,3.0,0.0,0.0,1.0,0.0,1.0,1.0,0.0,0.0,0.0,3.0,0.0,0.0,0.0,1.0,1.0,0.0,0.0,0.0,1.0,3.0,0.0,0.0,0.0,1.0,1.0,0.0,0.0,0.0,1.0,2.0,1.0,0.0,0.0,0.0,3.0,1.0,0.0,0.0,0.0,4.0,0.0,0.0,1.0,0.0,1.0,0.0,0.0,0.0,1.0,3.0,0.0,1.0,0.0,0.0,24.0,8.0,1.0,6.0,1.0,16.0,50.0, 6.25 ,37.5, 6.25 ,43.75
8,3,44,08/06/2015,18:30:00,1,8,1,1,83.0,26.0,50.0,1,1,1,11.0,39.0,17,2.0,17.0,33.0,46.0,57.0,66.0,76.0,88.0,99.0,112.0,124.0,11.0,39.0,1.0,7.0,38.0,0.0,16.0,38.0,0.0,15.0,38.0,0.0,9.0,38.0,0.0,13.0,38.0,0.0,6.0,38.0,0.0,13.0,38.0,0.0,10.0,38.0,0.0,15.0,45.0,2.0,85.0,100.0,85.0,68.0,75.0,100.0,100.0,99.0,88.0,100.0,85.0,100.0,75.0,100.0,100.0,85.0,50.0,85.0,58.0,75.0,50.0,50.0,91.0,78.0,70.0,85.0,90.0,75.0,90.0,50.0,1.0,9.0,9.0,5.0,5.0,1.0,1.0,8.0,3.0,1.0,5.0,9.0,5.0,1.0,9.0,,86.0,67.0,90.0,45.0,88.0,22.0,52.0,86.0,93.0,38.0,53.0,48.0,93.0,74.0,30.0,27.0,38.0,24.0,31.0,41.0,31.0,90.0,65.0,75.0,33.0,26.0,28.0,22.0,40.0,25.0,95.0,94.0,29.0,8.0,94.0,39.0,49.0,11.0,33.0,49.0,75.0,68.0,57.0,52.0,77.0,88.0,48.0,90.0,99.0,40.0,41.0,58.0,68.0,5.0,63.0,73.0,42.0,57.0,85.0,56.0,52.0,39.0,82.0,41.0,47.0,58.0,73.0,32.0,76.0,48.0,57.0,42.0,25.0,24.0,50.0,53.0,30.0,112.0,85.0,113.0,117.0,146.0,115.0,101.0,132.0,92.0,97.0,104.0,107.0,79.0,102.0,105.0,81.0,84.0,117.0,119.0,138.0,155.0,174.0,73.0,67.0,85.0,1.0,1.0,1.0,1.0,1.0,1.0,1.0,1.0,2.0,2.0,1.0,1.0,2.0,2.0,2.0,2.0,2.0,2.0,1.0,1.0,2.0,1.0,2.0,2.0,2.0,,,,,,1.0,1.0,1.0,5.0,5.0,2.0,0.0,4.0,1.0,22.0,0.0,3.0,2.0,3.0,1.0,1.0,2.0,4.0,10.0,4.0,8.0,6.0,6.0,2.0,6.0,4.0,8.0,2.0,6.0,2.0,2,3.0,0.0,1.0,0.0,0.0,1.0,1.0,0.0,0.0,0.0,3.0,0.0,0.0,1.0,0.0,1.0,1.0,0.0,0.0,0.0,1.0,1.0,0.0,0.0,0.0,2.0,0.0,1.0,0.0,0.0,4.0,0.0,0.0,0.0,1.0,4.0,1.0,0.0,0.0,0.0,1.0,0.0,0.0,0.0,1.0,4.0,0.0,1.0,0.0,0.0,1.0,0.0,0.0,0.0,1.0,2.0,1.0,0.0,0.0,0.0,3.0,1.0,0.0,0.0,0.0,3.0,0.0,1.0,0.0,0.0,1.0,0.0,0.0,0.0,1.0,3.0,0.0,1.0,0.0,0.0,2.0,6.0,2.0,5.0,3.0,16.0,37.5, 12.50 ,31.25, 18.75 ,50.0
8,5,45,08/06/2015,18:30:00,1,8,1,1,60.0,13.0,62.5,1,4,4,9.0,36.0,17,2.0,17.0,33.0,46.0,57.0,66.0,76.0,88.0,99.0,112.0,124.0,9.0,36.0,3.0,-19.0,33.0,3.0,7.0,30.0,3.0,12.0,27.0,2.0,11.0,25.0,2.0,8.0,23.0,1.0,12.0,22.0,2.0,-2.0,20.0,2.0,16.0,18.0,3.0,9.0,45.0,2.0,85.0,98.0,85.0,81.0,100.0,94.0,100.0,100.0,94.0,100.0,100.0,100.0,75.0,100.0,99.0,85.0,46.0,85.0,26.0,50.0,63.0,50.0,90.0,74.0,70.0,70.0,90.0,75.0,90.0,56.0,1.0,8.0,9.0,8.0,1.0,4.0,1.0,9.0,2.0,1.0,9.0,9.0,5.0,1.0,8.0,,,59.0,90.0,45.0,78.0,22.0,52.0,86.0,75.0,38.0,53.0,48.0,93.0,73.0,30.0,27.0,22.0,24.0,31.0,41.0,31.0,90.0,61.0,75.0,33.0,26.0,28.0,22.0,40.0,38.0,95.0,94.0,29.0,28.0,94.0,39.0,49.0,11.0,41.0,49.0,75.0,99.0,57.0,52.0,77.0,88.0,48.0,95.0,99.0,40.0,41.0,58.0,68.0,5.0,44.0,73.0,42.0,57.0,67.0,56.0,52.0,39.0,82.0,32.0,47.0,58.0,77.0,32.0,76.0,48.0,57.0,42.0,34.0,24.0,50.0,53.0,30.0,112.0,85.0,116.0,117.0,146.0,115.0,103.0,132.0,92.0,97.0,104.0,114.0,79.0,102.0,121.0,81.0,84.0,117.0,119.0,138.0,156.0,174.0,73.0,67.0,85.0,1.0,1.0,2.0,1.0,1.0,1.0,2.0,1.0,2.0,2.0,1.0,2.0,2.0,2.0,1.0,2.0,2.0,2.0,1.0,1.0,1.0,1.0,2.0,2.0,2.0,,,,,,24.0,1.0,1.0,5.0,2.0,3.0,0.0,2.0,4.0,9.0,2.0,2.0,2.0,2.0,1.0,1.0,1.0,4.0,4.0,4.0,3.0,1.0,8.0,8.0,5.0,8.0,6.0,5.0,3.0,9.0,1,1.0,1.0,0.0,0.0,0.0,4.0,0.0,0.0,0.0,1.0,1.0,1.0,0.0,0.0,0.0,1.0,1.0,0.0,0.0,0.0,1.0,1.0,0.0,0.0,0.0,4.0,0.0,0.0,0.0,1.0,3.0,0.0,0.0,1.0,0.0,4.0,1.0,0.0,0.0,0.0,2.0,1.0,0.0,0.0,0.0,1.0,0.0,0.0,1.0,0.0,1.0,0.0,0.0,0.0,1.0,1.0,0.0,0.0,0.0,1.0,2.0,0.0,1.0,0.0,0.0,3.0,0.0,1.0,0.0,0.0,1.0,0.0,0.0,0.0,1.0,3.0,0.0,1.0,0.0,0.0,25.0,8.0,2.0,3.0,3.0,16.0,50.0, 12.50 ,18.75, 18.75 ,37.5
8,7,46,08/06/2015,18:30:00,1,8,1,1,61.0,32.0,62.5,1,4,4,-14.0,36.0,17,2.0,17.0,33.0,46.0,57.0,66.0,76.0,88.0,99.0,112.0,124.0,-14.0,36.0,3.0,5.0,33.0,3.0,2.0,30.0,2.0,3.0,28.0,2.0,-2.0,26.0,2.0,15.0,24.0,2.0,8.0,22.0,2.0,18.0,20.0,2.0,18.0,18.0,2.0,17.0,45.0,2.0,85.0,89.0,63.0,76.0,63.0,89.0,78.0,98.0,69.0,96.0,85.0,81.0,75.0,85.0,95.0,85.0,24.0,94.0,36.0,88.0,76.0,88.0,93.0,89.0,81.0,85.0,94.0,75.0,95.0,75.0,1.0,3.0,4.0,7.0,7.0,7.0,7.0,7.0,6.0,4.0,5.0,6.0,5.0,5.0,5.0,,,67.0,90.0,45.0,78.0,19.0,52.0,67.0,75.0,31.0,53.0,48.0,71.0,73.0,30.0,27.0,38.0,24.0,31.0,41.0,34.0,90.0,65.0,75.0,33.0,26.0,22.0,22.0,40.0,38.0,83.0,94.0,44.0,28.0,74.0,39.0,49.0,25.0,41.0,49.0,75.0,68.0,57.0,52.0,77.0,60.0,48.0,90.0,99.0,40.0,41.0,39.0,68.0,5.0,44.0,65.0,42.0,53.0,67.0,43.0,52.0,39.0,63.0,32.0,47.0,58.0,73.0,32.0,76.0,48.0,50.0,42.0,25.0,24.0,50.0,53.0,17.0,112.0,85.0,116.0,102.0,146.0,110.0,103.0,105.0,92.0,97.0,97.0,114.0,79.0,102.0,105.0,81.0,84.0,117.0,94.0,138.0,155.0,174.0,73.0,67.0,61.0,1.0,1.0,2.0,2.0,1.0,2.0,2.0,2.0,2.0,2.0,2.0,2.0,2.0,2.0,2.0,2.0,2.0,2.0,2.0,1.0,2.0,1.0,2.0,2.0,1.0,,,,,,1.0,2.0,1.0,5.0,5.0,3.0,0.0,4.0,1.0,5.0,0.0,2.0,2.0,3.0,3.0,1.0,1.0,5.0,5.0,4.0,5.0,2.0,1.0,1.0,2.0,2.0,6.0,8.0,4.0,5.0,2,3.0,0.0,1.0,0.0,0.0,4.0,0.0,0.0,0.0,1.0,1.0,1.0,0.0,0.0,0.0,1.0,1.0,0.0,0.0,0.0,1.0,1.0,0.0,0.0,0.0,4.0,0.0,0.0,0.0,1.0,4.0,0.0,0.0,0.0,1.0,1.0,0.0,1.0,0.0,0.0,2.0,1.0,0.0,0.0,0.0,2.0,1.0,0.0,0.0,0.0,2.0,1.0,0.0,0.0,0.0,1.0,0.0,0.0,0.0,1.0,3.0,1.0,0.0,0.0,0.0,3.0,0.0,1.0,0.0,0.0,1.0,0.0,0.0,0.0,1.0,2.0,1.0,0.0,0.0,0.0,24.0,6.0,4.0,3.0,3.0,16.0,37.5, 25.00 ,18.75, 18.75 ,37.5
8,9,47,08/06/2015,18:30:00,1,8,1,1,59.0,4.0,50.0,1,3,3,-7.0,37.0,17,2.0,17.0,33.0,46.0,57.0,66.0,76.0,88.0,99.0,112.0,124.0,-7.0,37.0,3.0,7.0,34.0,2.0,15.0,32.0,3.0,3.0,29.0,3.0,5.0,26.0,2.0,9.0,24.0,4.0,8.0,20.0,2.0,17.0,18.0,2.0,16.0,16.0,2.0,15.0,45.0,2.0,85.0,100.0,81.0,63.0,81.0,85.0,81.0,91.0,81.0,93.0,85.0,94.0,75.0,93.0,93.0,85.0,50.0,87.0,68.0,69.0,85.0,81.0,99.0,81.0,93.0,85.0,91.0,75.0,93.0,88.0,1.0,9.0,8.0,4.0,4.0,9.0,6.0,2.0,4.0,7.0,5.0,8.0,5.0,3.0,3.0,,83.0,74.0,61.0,34.0,78.0,22.0,52.0,67.0,75.0,31.0,53.0,48.0,71.0,73.0,30.0,27.0,38.0,24.0,31.0,41.0,31.0,90.0,61.0,75.0,33.0,26.0,28.0,45.0,46.0,38.0,95.0,94.0,44.0,28.0,74.0,39.0,49.0,25.0,41.0,49.0,75.0,68.0,57.0,52.0,77.0,88.0,48.0,95.0,99.0,40.0,41.0,58.0,75.0,19.0,44.0,73.0,42.0,53.0,67.0,43.0,52.0,39.0,63.0,32.0,47.0,58.0,73.0,32.0,76.0,48.0,57.0,42.0,34.0,24.0,50.0,53.0,30.0,107.0,79.0,116.0,117.0,146.0,110.0,103.0,105.0,92.0,97.0,97.0,114.0,79.0,102.0,105.0,81.0,84.0,117.0,119.0,138.0,156.0,174.0,73.0,67.0,85.0,2.0,2.0,2.0,1.0,1.0,2.0,2.0,2.0,2.0,2.0,2.0,2.0,2.0,2.0,2.0,2.0,2.0,2.0,1.0,1.0,1.0,1.0,2.0,2.0,2.0,,,,,,1.0,2.0,1.0,5.0,5.0,5.0,0.0,4.0,1.0,8.0,0.0,2.0,2.0,2.0,3.0,2.0,3.0,6.0,4.0,4.0,7.0,3.0,8.0,7.0,6.0,3.0,8.0,5.0,7.0,3.0,2,1.0,1.0,0.0,0.0,0.0,3.0,0.0,0.0,1.0,0.0,3.0,0.0,0.0,1.0,0.0,1.0,1.0,0.0,0.0,0.0,1.0,1.0,0.0,0.0,0.0,4.0,0.0,0.0,0.0,1.0,1.0,1.0,0.0,0.0,0.0,3.0,0.0,0.0,0.0,1.0,2.0,1.0,0.0,0.0,0.0,3.0,0.0,0.0,0.0,1.0,1.0,0.0,0.0,0.0,1.0,1.0,0.0,0.0,0.0,1.0,3.0,1.0,0.0,0.0,0.0,3.0,0.0,1.0,0.0,0.0,1.0,0.0,0.0,0.0,1.0,3.0,0.0,1.0,0.0,0.0,26.0,7.0,1.0,7.0,1.0,16.0,43.75, 6.25 ,43.75, 6.25 ,50.0
8,11,48,08/06/2015,18:30:00,1,8,1,1,62.0,37.0,43.75,1,3,3,-9.0,37.0,17,2.0,17.0,33.0,46.0,57.0,66.0,76.0,88.0,99.0,112.0,124.0,-9.0,37.0,3.0,5.0,34.0,2.0,14.0,32.0,1.0,-9.0,31.0,1.0,7.0,30.0,3.0,17.0,27.0,3.0,18.0,24.0,2.0,18.0,22.0,3.0,17.0,19.0,2.0,18.0,45.0,2.0,85.0,94.0,72.0,63.0,75.0,89.0,78.0,95.0,81.0,95.0,85.0,88.0,75.0,81.0,94.0,85.0,37.0,91.0,68.0,75.0,76.0,88.0,95.0,81.0,85.0,85.0,93.0,75.0,96.0,81.0,1.0,6.0,6.0,4.0,5.0,7.0,7.0,5.0,4.0,5.0,5.0,7.0,5.0,6.0,4.0,,80.0,72.0,61.0,45.0,78.0,22.0,52.0,67.0,75.0,38.0,53.0,48.0,71.0,73.0,30.0,27.0,22.0,24.0,31.0,41.0,34.0,90.0,65.0,75.0,33.0,26.0,28.0,45.0,40.0,38.0,95.0,94.0,44.0,28.0,94.0,39.0,49.0,25.0,41.0,49.0,75.0,99.0,57.0,52.0,77.0,60.0,48.0,90.0,99.0,40.0,41.0,58.0,75.0,5.0,44.0,73.0,42.0,53.0,67.0,56.0,52.0,39.0,63.0,32.0,47.0,58.0,77.0,32.0,76.0,48.0,50.0,42.0,25.0,24.0,50.0,53.0,30.0,107.0,85.0,116.0,117.0,146.0,110.0,103.0,132.0,92.0,97.0,97.0,114.0,79.0,102.0,121.0,81.0,84.0,117.0,94.0,138.0,155.0,174.0,73.0,67.0,85.0,2.0,1.0,2.0,1.0,1.0,2.0,2.0,1.0,2.0,2.0,2.0,2.0,2.0,2.0,1.0,2.0,2.0,2.0,2.0,1.0,2.0,1.0,2.0,2.0,2.0,,,,,,1.0,1.0,1.0,2.0,5.0,3.0,1.0,4.0,2.0,6.0,1.0,1.0,2.0,3.0,3.0,1.0,3.0,8.0,6.0,4.0,8.0,3.0,6.0,4.0,8.0,2.0,7.0,4.0,4.0,2.0,2,1.0,1.0,0.0,0.0,0.0,3.0,0.0,0.0,1.0,0.0,3.0,0.0,0.0,1.0,0.0,1.0,1.0,0.0,0.0,0.0,2.0,0.0,1.0,0.0,0.0,3.0,0.0,0.0,1.0,0.0,4.0,0.0,0.0,0.0,1.0,3.0,0.0,0.0,0.0,1.0,3.0,0.0,1.0,0.0,0.0,1.0,0.0,0.0,1.0,0.0,1.0,0.0,0.0,0.0,1.0,1.0,0.0,0.0,0.0,1.0,3.0,1.0,0.0,0.0,0.0,3.0,0.0,1.0,0.0,0.0,1.0,0.0,0.0,0.0,1.0,3.0,0.0,1.0,0.0,0.0,23.0,6.0,1.0,8.0,1.0,16.0,37.5, 6.25 ,50.0, 6.25 ,56.25
1,5,49,05/29/2015,13:30:00,5,9,2,2,,40.85,37.5,1,2,2,0.0,38.0,12,2.0,12.0,28.0,42.0,54.0,61.0,73.0,78.0,91.0,107.0,107.0,0.0,38.0,3.0,0.0,35.0,3.0,0.0,32.0,3.0,0.0,29.0,0.0,0.0,29.0,0.0,0.0,29.0,0.0,0.0,29.0,0.0,0.0,29.0,0.0,0.0,29.0,0.0,,29.642857142857142,2.0,85.0,96.0,68.0,59.0,69.0,93.0,93.0,95.0,69.0,94.0,89.0,88.0,69.0,93.0,91.0,85.0,41.0,93.0,79.0,81.0,68.0,63.0,95.0,89.0,89.0,81.0,93.0,81.0,93.0,94.0,1.0,7.0,5.0,3.0,6.0,5.0,3.0,5.0,6.0,6.0,6.0,7.0,4.0,3.0,2.0,-527.0,78.0,,90.0,45.0,88.0,22.0,52.0,86.0,93.0,38.0,62.0,53.0,93.0,73.0,11.0,7.0,22.0,14.0,3.0,27.0,31.0,90.0,61.0,75.0,12.0,8.0,22.0,22.0,40.0,25.0,95.0,94.0,29.0,8.0,94.0,13.0,25.0,11.0,41.0,61.0,86.0,99.0,36.0,76.0,90.0,88.0,48.0,95.0,99.0,55.0,59.0,39.0,68.0,5.0,63.0,73.0,42.0,57.0,85.0,56.0,49.0,28.0,82.0,32.0,50.0,79.0,77.0,22.0,73.0,63.0,57.0,42.0,34.0,24.0,43.0,51.0,17.0,112.0,85.0,113.0,117.0,146.0,115.0,101.0,132.0,75.0,78.0,104.0,114.0,72.0,93.0,121.0,50.0,79.0,117.0,119.0,138.0,156.0,174.0,67.0,67.0,61.0,1.0,1.0,1.0,1.0,1.0,1.0,1.0,1.0,1.0,1.0,1.0,2.0,1.0,1.0,1.0,1.0,1.0,1.0,1.0,1.0,1.0,1.0,1.0,1.0,1.0,-442.0,,,,,1.0,2.0,3.0,5.0,5.0,7.0,5.0,4.0,1.0,9.0,0.0,2.0,1.0,4.0,3.0,1.0,1.0,4.0,10.0,4.0,8.0,7.0,8.0,8.0,6.0,6.0,8.0,7.0,8.0,5.0,???,4.0,0.0,0.0,0.0,1.0,3.0,0.0,0.0,1.0,0.0,3.0,0.0,0.0,1.0,0.0,1.0,1.0,0.0,0.0,0.0,1.0,1.0,0.0,0.0,0.0,3.0,0.0,0.0,1.0,0.0,2.0,0.0,1.0,0.0,0.0,3.0,0.0,0.0,0.0,1.0,4.0,0.0,0.0,1.0,0.0,1.0,0.0,0.0,1.0,0.0,1.0,0.0,0.0,0.0,1.0,4.0,0.0,0.0,1.0,0.0,3.0,1.0,0.0,0.0,0.0,3.0,0.0,1.0,0.0,0.0,1.0,0.0,0.0,0.0,1.0,3.0,0.0,1.0,0.0,0.0,,5.0,1.0,7.0,3.0,16.0,31.25, 6.25 ,43.75, 18.75 ,62.5
1,12,50,05/29/2015,13:30:00,5,9,2,2,,16.26,56.25,1,2,2,0.0,38.0,12,2.0,12.0,28.0,42.0,54.0,61.0,73.0,78.0,91.0,107.0,111.0,0.0,38.0,2.0,0.0,36.0,2.0,0.0,34.0,2.0,0.0,32.0,2.0,0.0,30.0,2.0,0.0,28.0,2.0,0.0,26.0,3.0,0.0,23.0,3.0,0.0,20.0,4.0,,29.642857142857142,2.0,85.0,100.0,85.0,85.0,100.0,85.0,81.0,100.0,100.0,90.0,100.0,100.0,100.0,100.0,90.0,85.0,50.0,85.0,15.0,50.0,85.0,81.0,90.0,70.0,100.0,70.0,90.0,50.0,90.0,100.0,1.0,9.0,9.0,9.0,1.0,9.0,6.0,9.0,1.0,9.0,9.0,9.0,9.0,1.0,1.0,-163.0,90.0,62.0,90.0,45.0,88.0,22.0,52.0,86.0,93.0,38.0,53.0,48.0,93.0,73.0,30.0,27.0,38.0,24.0,31.0,41.0,31.0,90.0,65.0,75.0,33.0,26.0,28.0,22.0,40.0,25.0,95.0,94.0,29.0,8.0,94.0,39.0,49.0,11.0,41.0,49.0,75.0,68.0,57.0,52.0,77.0,88.0,48.0,90.0,99.0,40.0,41.0,58.0,68.0,5.0,63.0,73.0,42.0,57.0,85.0,56.0,52.0,39.0,82.0,32.0,47.0,58.0,73.0,32.0,76.0,48.0,57.0,42.0,25.0,24.0,50.0,53.0,30.0,112.0,85.0,113.0,117.0,146.0,115.0,101.0,132.0,92.0,97.0,104.0,114.0,79.0,102.0,105.0,81.0,84.0,117.0,119.0,138.0,155.0,174.0,73.0,67.0,85.0,1.0,1.0,1.0,1.0,1.0,1.0,1.0,1.0,2.0,2.0,1.0,2.0,2.0,2.0,2.0,2.0,2.0,2.0,1.0,1.0,2.0,1.0,2.0,2.0,2.0,-116.0,,,,,1.0,2.0,1.0,5.0,7.0,5.0,3.0,4.0,2.0,8.0,1.0,2.0,2.0,4.0,1.0,3.0,1.0,2.0,4.0,3.0,5.0,8.0,3.0,5.0,8.0,5.0,8.0,8.0,5.0,3.0,???,1.0,1.0,0.0,0.0,0.0,4.0,0.0,0.0,0.0,1.0,1.0,1.0,0.0,0.0,0.0,1.0,1.0,0.0,0.0,0.0,1.0,1.0,0.0,0.0,0.0,3.0,0.0,0.0,1.0,0.0,4.0,0.0,0.0,0.0,1.0,4.0,1.0,0.0,0.0,0.0,2.0,1.0,0.0,0.0,0.0,4.0,0.0,1.0,0.0,0.0,1.0,0.0,0.0,0.0,1.0,1.0,0.0,0.0,0.0,1.0,3.0,1.0,0.0,0.0,0.0,3.0,0.0,1.0,0.0,0.0,1.0,0.0,0.0,0.0,1.0,2.0,1.0,0.0,0.0,0.0,,7.0,2.0,3.0,4.0,16.0,43.75, 12.50 ,18.75, 25.00 ,43.75
1,19,51,05/29/2015,13:30:00,5,9,2,2,,22.82,56.25,1,1,1,0.0,39.0,12,2.0,12.0,28.0,42.0,54.0,61.0,73.0,78.0,91.0,107.0,117.0,0.0,39.0,2.0,0.0,37.0,2.0,0.0,35.0,1.0,0.0,34.0,2.0,0.0,32.0,0.0,0.0,32.0,0.0,0.0,32.0,2.0,0.0,30.0,1.0,0.0,29.0,2.0,,29.642857142857142,2.0,85.0,100.0,81.0,76.0,88.0,91.0,89.0,100.0,94.0,95.0,100.0,100.0,75.0,100.0,93.0,85.0,50.0,87.0,36.0,63.0,72.0,69.0,90.0,74.0,85.0,70.0,90.0,75.0,90.0,88.0,1.0,9.0,8.0,7.0,3.0,6.0,4.0,9.0,2.0,5.0,9.0,9.0,5.0,1.0,3.0,-207.0,87.0,,61.0,45.0,78.0,19.0,52.0,86.0,75.0,38.0,53.0,48.0,71.0,73.0,30.0,27.0,38.0,24.0,31.0,41.0,34.0,90.0,65.0,79.0,33.0,26.0,28.0,45.0,40.0,38.0,83.0,94.0,29.0,28.0,94.0,39.0,49.0,25.0,41.0,49.0,75.0,68.0,57.0,52.0,77.0,60.0,47.0,90.0,80.0,40.0,41.0,58.0,75.0,5.0,44.0,65.0,42.0,57.0,67.0,56.0,52.0,39.0,63.0,32.0,47.0,58.0,73.0,32.0,76.0,48.0,50.0,43.0,25.0,31.0,50.0,53.0,30.0,107.0,85.0,116.0,102.0,146.0,115.0,103.0,132.0,92.0,97.0,97.0,114.0,79.0,102.0,105.0,81.0,84.0,117.0,94.0,138.0,155.0,160.0,73.0,67.0,85.0,2.0,1.0,2.0,2.0,1.0,1.0,2.0,1.0,2.0,2.0,2.0,2.0,2.0,2.0,2.0,2.0,2.0,2.0,2.0,2.0,2.0,2.0,2.0,2.0,2.0,-81.0,,,,,1.0,2.0,1.0,5.0,5.0,5.0,2.0,4.0,2.0,30.0,1.0,2.0,2.0,4.0,1.0,3.0,2.0,3.0,8.0,3.0,4.0,3.0,6.0,4.0,7.0,8.0,7.0,4.0,8.0,5.0,???,1.0,1.0,0.0,0.0,0.0,3.0,0.0,0.0,1.0,0.0,3.0,0.0,0.0,1.0,0.0,1.0,1.0,0.0,0.0,0.0,1.0,1.0,0.0,0.0,0.0,3.0,0.0,0.0,1.0,0.0,1.0,1.0,0.0,0.0,0.0,4.0,1.0,0.0,0.0,0.0,1.0,0.0,0.0,0.0,1.0,4.0,0.0,1.0,0.0,0.0,1.0,0.0,0.0,0.0,1.0,1.0,0.0,0.0,0.0,1.0,2.0,0.0,1.0,0.0,0.0,3.0,0.0,1.0,0.0,0.0,1.0,0.0,0.0,0.0,1.0,3.0,0.0,1.0,0.0,0.0,,8.0,1.0,5.0,2.0,16.0,50.0, 6.25 ,31.25, 12.50 ,43.75
1,26,52,05/29/2015,13:30:00,5,9,2,2,,34.88,31.25,1,2,2,0.0,38.0,12,2.0,12.0,28.0,42.0,54.0,61.0,73.0,78.0,91.0,107.0,115.0,0.0,38.0,4.0,0.0,34.0,3.0,0.0,31.0,0.0,0.0,31.0,0.0,0.0,31.0,4.0,0.0,27.0,0.0,0.0,27.0,2.0,0.0,25.0,4.0,0.0,21.0,4.0,,29.642857142857142,2.0,85.0,100.0,85.0,68.0,75.0,85.0,81.0,95.0,81.0,96.0,85.0,75.0,75.0,96.0,91.0,85.0,50.0,85.0,58.0,75.0,85.0,81.0,95.0,81.0,81.0,85.0,95.0,75.0,91.0,94.0,1.0,9.0,9.0,5.0,5.0,9.0,6.0,5.0,4.0,4.0,5.0,5.0,5.0,2.0,2.0,-199.0,83.0,73.0,90.0,45.0,78.0,22.0,52.0,86.0,93.0,38.0,53.0,48.0,93.0,73.0,30.0,27.0,22.0,24.0,31.0,41.0,31.0,90.0,65.0,75.0,33.0,26.0,28.0,22.0,40.0,38.0,95.0,94.0,29.0,8.0,94.0,39.0,49.0,11.0,41.0,49.0,75.0,99.0,57.0,52.0,77.0,88.0,48.0,90.0,99.0,40.0,41.0,58.0,68.0,5.0,44.0,73.0,42.0,57.0,85.0,56.0,52.0,39.0,82.0,32.0,47.0,58.0,77.0,32.0,76.0,48.0,57.0,42.0,25.0,24.0,50.0,53.0,30.0,112.0,85.0,116.0,117.0,146.0,115.0,101.0,132.0,92.0,97.0,104.0,114.0,79.0,102.0,121.0,81.0,84.0,117.0,119.0,138.0,155.0,174.0,73.0,67.0,85.0,1.0,1.0,2.0,1.0,1.0,1.0,1.0,1.0,2.0,2.0,1.0,2.0,2.0,2.0,1.0,2.0,2.0,2.0,1.0,1.0,2.0,1.0,2.0,2.0,2.0,-88.0,,,,,1.0,1.0,2.0,1.0,2.0,3.0,0.0,1.0,2.0,19.0,1.0,2.0,2.0,4.0,1.0,1.0,1.0,4.0,6.0,3.0,10.0,8.0,10.0,8.0,10.0,1.0,10.0,8.0,1.0,7.0,???,1.0,1.0,0.0,0.0,0.0,3.0,0.0,0.0,1.0,0.0,3.0,0.0,0.0,1.0,0.0,2.0,0.0,1.0,0.0,0.0,4.0,0.0,0.0,0.0,1.0,3.0,0.0,0.0,1.0,0.0,4.0,0.0,0.0,0.0,1.0,3.0,0.0,0.0,0.0,1.0,3.0,0.0,1.0,0.0,0.0,3.0,0.0,0.0,0.0,1.0,1.0,0.0,0.0,0.0,1.0,1.0,0.0,0.0,0.0,1.0,3.0,1.0,0.0,0.0,0.0,3.0,0.0,1.0,0.0,0.0,1.0,0.0,0.0,0.0,1.0,3.0,0.0,1.0,0.0,0.0,,4.0,1.0,9.0,2.0,16.0,25.0, 6.25 ,56.25, 12.50 ,68.75
1,33,53,05/29/2015,13:30:00,5,9,2,2,,37.48,56.25,1,2,2,0.0,38.0,12,2.0,12.0,28.0,42.0,54.0,61.0,73.0,78.0,91.0,107.0,117.0,0.0,38.0,2.0,0.0,36.0,2.0,0.0,34.0,2.0,0.0,32.0,0.0,0.0,32.0,2.0,0.0,30.0,1.0,0.0,29.0,2.0,0.0,27.0,4.0,0.0,23.0,0.0,,29.642857142857142,2.0,85.0,100.0,85.0,63.0,75.0,85.0,81.0,95.0,81.0,93.0,85.0,94.0,75.0,96.0,91.0,85.0,50.0,85.0,68.0,75.0,85.0,81.0,95.0,81.0,93.0,85.0,91.0,75.0,91.0,94.0,1.0,9.0,9.0,4.0,5.0,9.0,6.0,5.0,4.0,7.0,5.0,8.0,5.0,2.0,2.0,-231.0,82.0,75.0,61.0,45.0,78.0,19.0,52.0,67.0,75.0,38.0,53.0,48.0,71.0,74.0,30.0,27.0,38.0,24.0,31.0,41.0,34.0,90.0,65.0,79.0,33.0,26.0,28.0,45.0,40.0,38.0,83.0,94.0,44.0,28.0,94.0,39.0,49.0,25.0,33.0,49.0,75.0,68.0,57.0,52.0,77.0,60.0,48.0,90.0,80.0,40.0,41.0,58.0,75.0,5.0,44.0,65.0,42.0,53.0,67.0,56.0,52.0,39.0,63.0,41.0,47.0,58.0,73.0,32.0,76.0,48.0,50.0,42.0,25.0,31.0,50.0,53.0,30.0,107.0,85.0,116.0,102.0,146.0,110.0,103.0,132.0,92.0,97.0,97.0,107.0,79.0,102.0,105.0,81.0,84.0,117.0,94.0,138.0,155.0,160.0,73.0,67.0,85.0,2.0,1.0,2.0,2.0,1.0,2.0,2.0,1.0,2.0,2.0,2.0,1.0,2.0,2.0,2.0,2.0,2.0,2.0,2.0,1.0,2.0,2.0,2.0,2.0,2.0,-205.0,,,,,1.0,1.0,1.0,2.0,2.0,3.0,0.0,3.0,1.0,6.0,0.0,2.0,2.0,2.0,1.0,2.0,3.0,5.0,7.0,5.0,10.0,8.0,5.0,5.0,8.0,1.0,6.0,5.0,5.0,5.0,???,1.0,1.0,0.0,0.0,0.0,1.0,1.0,0.0,0.0,0.0,1.0,1.0,0.0,0.0,0.0,1.0,1.0,0.0,0.0,0.0,2.0,0.0,1.0,0.0,0.0,3.0,0.0,0.0,1.0,0.0,4.0,0.0,0.0,0.0,1.0,3.0,0.0,0.0,0.0,1.0,2.0,1.0,0.0,0.0,0.0,3.0,0.0,0.0,0.0,1.0,1.0,0.0,0.0,0.0,1.0,1.0,0.0,0.0,0.0,1.0,3.0,1.0,0.0,0.0,0.0,3.0,0.0,1.0,0.0,0.0,1.0,0.0,0.0,0.0,1.0,3.0,0.0,1.0,0.0,0.0,,7.0,2.0,6.0,1.0,16.0,43.75, 12.50 ,37.5, 6.25 ,43.75
1,40,54,05/29/2015,13:30:00,5,9,2,1,,28.43,50.0,1,3,3,0.0,37.0,12,2.0,12.0,28.0,42.0,54.0,61.0,73.0,78.0,91.0,107.0,121.0,0.0,37.0,3.0,0.0,34.0,2.0,0.0,32.0,4.0,0.0,28.0,3.0,0.0,25.0,4.0,0.0,21.0,2.0,0.0,19.0,4.0,0.0,15.0,4.0,0.0,11.0,4.0,,29.642857142857142,2.0,85.0,100.0,76.0,63.0,81.0,100.0,81.0,99.0,81.0,93.0,85.0,88.0,69.0,93.0,93.0,85.0,50.0,89.0,68.0,69.0,50.0,81.0,91.0,81.0,93.0,85.0,93.0,81.0,93.0,88.0,1.0,9.0,7.0,4.0,4.0,1.0,6.0,8.0,4.0,7.0,5.0,7.0,4.0,3.0,3.0,-359.0,84.0,,61.0,45.0,78.0,22.0,52.0,67.0,75.0,38.0,53.0,48.0,71.0,73.0,30.0,27.0,22.0,24.0,31.0,41.0,31.0,90.0,61.0,75.0,33.0,26.0,28.0,45.0,40.0,38.0,95.0,94.0,44.0,28.0,94.0,39.0,49.0,25.0,41.0,49.0,75.0,99.0,57.0,52.0,77.0,88.0,48.0,95.0,99.0,40.0,41.0,58.0,75.0,5.0,44.0,73.0,42.0,53.0,67.0,56.0,52.0,39.0,63.0,32.0,47.0,58.0,77.0,32.0,76.0,48.0,57.0,42.0,34.0,24.0,50.0,53.0,30.0,107.0,85.0,116.0,117.0,146.0,110.0,103.0,132.0,92.0,97.0,97.0,114.0,79.0,102.0,121.0,81.0,84.0,117.0,119.0,138.0,156.0,174.0,73.0,67.0,85.0,2.0,1.0,2.0,1.0,1.0,2.0,2.0,1.0,2.0,2.0,2.0,2.0,2.0,2.0,1.0,2.0,2.0,2.0,1.0,1.0,1.0,1.0,2.0,2.0,2.0,-283.0,,,,,1.0,2.0,2.0,5.0,5.0,6.0,3.0,4.0,1.0,4.0,0.0,2.0,2.0,4.0,1.0,3.0,3.0,4.0,9.0,7.0,6.0,2.0,9.0,1.0,8.0,6.0,8.0,8.0,7.0,3.0,???,1.0,1.0,0.0,0.0,0.0,1.0,1.0,0.0,0.0,0.0,3.0,0.0,0.0,1.0,0.0,1.0,1.0,0.0,0.0,0.0,4.0,0.0,0.0,0.0,1.0,4.0,0.0,0.0,0.0,1.0,1.0,1.0,0.0,0.0,0.0,4.0,1.0,0.0,0.0,0.0,1.0,0.0,0.0,0.0,1.0,3.0,0.0,0.0,0.0,1.0,1.0,0.0,0.0,0.0,1.0,2.0,1.0,0.0,0.0,0.0,3.0,1.0,0.0,0.0,0.0,3.0,0.0,1.0,0.0,0.0,1.0,0.0,0.0,0.0,1.0,3.0,0.0,1.0,0.0,0.0,,7.0,1.0,5.0,3.0,16.0,43.75, 6.25 ,31.25, 18.75 ,50.0
2,7,55,01/06/2015,09:30:00,2,10,2,1,52.0,32.0,56.25,1,1,1,10.0,39.0,14,2.0,14.0,33.0,45.0,56.0,70.0,84.0,96.0,108.0,118.0,124.0,10.0,39.0,4.0,-1.0,35.0,3.0,15.0,32.0,2.0,11.0,30.0,3.0,12.0,27.0,4.0,-6.0,23.0,4.0,-11.0,19.0,4.0,11.0,15.0,4.0,12.0,11.0,4.0,19.0,45.0,2.0,85.0,85.0,63.0,85.0,81.0,100.0,85.0,93.0,75.0,90.0,93.0,94.0,63.0,96.0,94.0,68.0,15.0,94.0,15.0,69.0,50.0,75.0,98.0,85.0,100.0,78.0,91.0,88.0,91.0,81.0,3.0,1.0,4.0,9.0,4.0,1.0,5.0,3.0,5.0,9.0,7.0,8.0,3.0,2.0,4.0,,83.0,52.0,90.0,45.0,78.0,19.0,51.0,67.0,75.0,38.0,62.0,53.0,71.0,73.0,30.0,27.0,38.0,24.0,31.0,41.0,31.0,90.0,61.0,79.0,12.0,8.0,22.0,22.0,40.0,38.0,83.0,92.0,44.0,28.0,94.0,13.0,25.0,25.0,41.0,49.0,75.0,68.0,57.0,52.0,77.0,88.0,48.0,95.0,80.0,55.0,59.0,39.0,68.0,5.0,44.0,65.0,41.0,53.0,67.0,56.0,49.0,28.0,63.0,32.0,47.0,58.0,73.0,32.0,76.0,48.0,57.0,42.0,34.0,31.0,43.0,51.0,17.0,112.0,85.0,116.0,102.0,143.0,110.0,103.0,132.0,75.0,78.0,97.0,114.0,79.0,102.0,105.0,81.0,84.0,117.0,119.0,138.0,156.0,160.0,67.0,67.0,61.0,1.0,1.0,2.0,2.0,2.0,2.0,2.0,1.0,1.0,1.0,2.0,2.0,2.0,2.0,2.0,2.0,2.0,2.0,1.0,1.0,1.0,2.0,1.0,1.0,1.0,-275.0,58.0,53.0,,,7.0,2.0,1.0,5.0,5.0,5.0,2.0,4.0,1.0,12.0,0.0,2.0,1.0,3.0,1.0,2.0,2.0,4.0,10.0,4.0,3.0,1.0,5.0,9.0,5.0,5.0,8.0,4.0,5.0,9.0,2,1.0,1.0,0.0,0.0,0.0,3.0,0.0,0.0,1.0,0.0,1.0,1.0,0.0,0.0,0.0,1.0,1.0,0.0,0.0,0.0,1.0,1.0,0.0,0.0,0.0,3.0,0.0,0.0,1.0,0.0,3.0,0.0,0.0,1.0,0.0,4.0,1.0,0.0,0.0,0.0,1.0,0.0,0.0,0.0,1.0,1.0,0.0,0.0,1.0,0.0,1.0,0.0,0.0,0.0,1.0,1.0,0.0,0.0,0.0,1.0,3.0,1.0,0.0,0.0,0.0,3.0,0.0,1.0,0.0,0.0,1.0,0.0,0.0,0.0,1.0,3.0,0.0,1.0,0.0,0.0,33.0,9.0,0.0,6.0,1.0,16.0,56.25, -   ,37.5, 6.25 ,43.75
2,8,56,01/06/2015,09:30:00,2,10,2,1,63.0,37.0,62.5,1,2,2,15.0,38.0,14,2.0,14.0,33.0,45.0,56.0,70.0,84.0,96.0,108.0,118.0,124.0,15.0,38.0,4.0,10.0,34.0,2.0,-12.0,32.0,2.0,-12.0,30.0,4.0,17.0,26.0,2.0,15.0,24.0,2.0,17.0,22.0,2.0,12.0,20.0,2.0,6.0,18.0,0.0,18.0,45.0,2.0,85.0,100.0,85.0,63.0,75.0,85.0,81.0,95.0,81.0,93.0,85.0,100.0,75.0,93.0,93.0,85.0,50.0,85.0,68.0,75.0,85.0,81.0,95.0,81.0,93.0,85.0,90.0,75.0,93.0,88.0,1.0,9.0,9.0,4.0,5.0,9.0,6.0,5.0,4.0,7.0,5.0,9.0,5.0,3.0,3.0,,82.0,75.0,90.0,45.0,78.0,22.0,52.0,86.0,75.0,38.0,53.0,48.0,71.0,73.0,30.0,27.0,38.0,24.0,31.0,41.0,34.0,90.0,65.0,79.0,33.0,26.0,28.0,22.0,40.0,38.0,95.0,94.0,29.0,28.0,94.0,39.0,49.0,25.0,41.0,49.0,75.0,68.0,57.0,52.0,77.0,60.0,48.0,90.0,80.0,40.0,41.0,58.0,68.0,5.0,44.0,73.0,42.0,57.0,67.0,56.0,52.0,39.0,63.0,32.0,47.0,58.0,73.0,32.0,76.0,48.0,50.0,42.0,25.0,31.0,50.0,53.0,30.0,112.0,85.0,116.0,117.0,146.0,115.0,103.0,132.0,92.0,97.0,97.0,114.0,79.0,102.0,105.0,81.0,84.0,117.0,94.0,138.0,155.0,160.0,73.0,67.0,85.0,1.0,1.0,2.0,1.0,1.0,1.0,2.0,1.0,2.0,2.0,2.0,2.0,2.0,2.0,2.0,2.0,2.0,2.0,2.0,1.0,2.0,2.0,2.0,2.0,2.0,-84.0,62.0,53.0,,,1.0,2.0,1.0,5.0,5.0,3.0,0.0,4.0,1.0,6.0,1.0,2.0,2.0,4.0,1.0,1.0,1.0,4.0,6.0,5.0,8.0,4.0,9.0,3.0,5.0,4.0,6.0,4.0,6.0,5.0,1,3.0,0.0,1.0,0.0,0.0,3.0,0.0,0.0,1.0,0.0,3.0,0.0,0.0,1.0,0.0,1.0,1.0,0.0,0.0,0.0,1.0,1.0,0.0,0.0,0.0,1.0,1.0,0.0,0.0,0.0,1.0,1.0,0.0,0.0,0.0,4.0,1.0,0.0,0.0,0.0,2.0,1.0,0.0,0.0,0.0,1.0,0.0,0.0,1.0,0.0,1.0,0.0,0.0,0.0,1.0,1.0,0.0,0.0,0.0,1.0,3.0,1.0,0.0,0.0,0.0,3.0,0.0,1.0,0.0,0.0,1.0,0.0,0.0,0.0,1.0,2.0,1.0,0.0,0.0,0.0,22.0,8.0,2.0,5.0,1.0,16.0,50.0, 12.50 ,31.25, 6.25 ,37.5
2,9,57,01/06/2015,09:30:00,2,10,2,1,76.0,24.0,50.0,1,4,4,-54.0,36.0,14,2.0,14.0,33.0,45.0,56.0,70.0,84.0,96.0,108.0,118.0,125.0,-54.0,36.0,1.0,11.0,35.0,0.0,13.0,35.0,1.0,12.0,34.0,0.0,18.0,34.0,1.0,10.0,33.0,0.0,16.0,33.0,1.0,15.0,32.0,0.0,6.0,32.0,1.0,6.0,45.0,2.0,85.0,98.0,85.0,81.0,75.0,89.0,81.0,100.0,81.0,94.0,89.0,100.0,69.0,93.0,93.0,85.0,46.0,85.0,26.0,75.0,76.0,81.0,90.0,81.0,89.0,81.0,90.0,81.0,93.0,88.0,1.0,8.0,9.0,8.0,5.0,7.0,6.0,9.0,4.0,6.0,6.0,9.0,4.0,3.0,3.0,,85.0,,90.0,45.0,88.0,19.0,52.0,86.0,93.0,38.0,62.0,53.0,93.0,74.0,30.0,27.0,38.0,24.0,31.0,41.0,34.0,90.0,65.0,79.0,33.0,26.0,28.0,22.0,40.0,25.0,83.0,94.0,29.0,8.0,94.0,13.0,25.0,11.0,33.0,49.0,75.0,68.0,57.0,52.0,77.0,60.0,48.0,90.0,80.0,40.0,41.0,58.0,68.0,5.0,63.0,65.0,42.0,57.0,85.0,56.0,49.0,28.0,82.0,41.0,47.0,58.0,73.0,32.0,76.0,48.0,50.0,42.0,25.0,31.0,50.0,53.0,30.0,112.0,85.0,113.0,102.0,146.0,115.0,101.0,132.0,75.0,78.0,104.0,107.0,79.0,102.0,105.0,81.0,84.0,117.0,94.0,138.0,155.0,160.0,73.0,67.0,85.0,1.0,1.0,1.0,2.0,1.0,1.0,1.0,1.0,1.0,1.0,1.0,1.0,2.0,2.0,2.0,2.0,2.0,2.0,2.0,1.0,2.0,2.0,2.0,2.0,2.0,-148.0,63.0,49.0,,,1.0,2.0,1.0,5.0,7.0,4.0,1.0,4.0,1.0,9.0,0.0,2.0,1.0,4.0,1.0,1.0,1.0,5.0,10.0,5.0,9.0,6.0,6.0,2.0,7.0,3.0,8.0,6.0,7.0,4.0,2,1.0,1.0,0.0,0.0,0.0,3.0,0.0,0.0,1.0,0.0,3.0,0.0,0.0,1.0,0.0,1.0,1.0,0.0,0.0,0.0,1.0,1.0,0.0,0.0,0.0,3.0,0.0,0.0,1.0,0.0,1.0,1.0,0.0,0.0,0.0,4.0,1.0,0.0,0.0,0.0,3.0,0.0,1.0,0.0,0.0,3.0,0.0,0.0,0.0,1.0,1.0,0.0,0.0,0.0,1.0,1.0,0.0,0.0,0.0,1.0,3.0,1.0,0.0,0.0,0.0,3.0,0.0,1.0,0.0,0.0,1.0,0.0,0.0,0.0,1.0,2.0,1.0,0.0,0.0,0.0,9.0,7.0,1.0,7.0,1.0,16.0,43.75, 6.25 ,43.75, 6.25 ,50.0
2,10,58,01/06/2015,09:30:00,2,10,2,2,55.0,29.0,68.75,1,2,2,3.0,38.0,14,2.0,14.0,33.0,45.0,56.0,70.0,84.0,96.0,108.0,118.0,119.0,3.0,38.0,4.0,17.0,34.0,4.0,15.0,30.0,3.0,15.0,27.0,4.0,17.0,23.0,4.0,-14.0,19.0,3.0,18.0,16.0,3.0,13.0,13.0,2.0,10.0,11.0,1.0,19.0,45.0,2.0,85.0,100.0,85.0,68.0,81.0,85.0,81.0,98.0,88.0,93.0,74.0,75.0,75.0,96.0,91.0,68.0,50.0,85.0,58.0,69.0,85.0,81.0,93.0,78.0,93.0,96.0,95.0,75.0,91.0,94.0,3.0,9.0,9.0,5.0,4.0,9.0,6.0,7.0,3.0,7.0,2.0,5.0,5.0,2.0,2.0,,84.0,69.0,90.0,45.0,78.0,19.0,52.0,67.0,75.0,31.0,62.0,48.0,71.0,73.0,30.0,27.0,38.0,24.0,31.0,41.0,34.0,90.0,65.0,75.0,33.0,26.0,22.0,22.0,40.0,38.0,83.0,94.0,44.0,28.0,74.0,13.0,49.0,25.0,41.0,49.0,75.0,68.0,57.0,52.0,77.0,60.0,48.0,90.0,99.0,40.0,41.0,39.0,68.0,5.0,44.0,65.0,42.0,53.0,67.0,43.0,49.0,39.0,63.0,32.0,47.0,58.0,73.0,32.0,76.0,48.0,50.0,42.0,25.0,24.0,50.0,53.0,17.0,112.0,85.0,116.0,102.0,146.0,110.0,103.0,105.0,75.0,97.0,97.0,114.0,79.0,102.0,105.0,81.0,84.0,117.0,94.0,138.0,155.0,174.0,73.0,67.0,61.0,1.0,1.0,2.0,2.0,1.0,2.0,2.0,2.0,1.0,2.0,2.0,2.0,2.0,2.0,2.0,2.0,2.0,2.0,2.0,1.0,2.0,1.0,2.0,2.0,1.0,-213.0,58.0,,,,1.0,1.0,1.0,5.0,5.0,3.0,0.0,4.0,1.0,9.0,0.0,2.0,2.0,4.0,1.0,3.0,1.0,4.0,8.0,4.0,4.0,5.0,6.0,7.0,4.0,7.0,5.0,5.0,5.0,6.0,2,3.0,0.0,1.0,0.0,0.0,1.0,1.0,0.0,0.0,0.0,2.0,0.0,1.0,0.0,0.0,1.0,1.0,0.0,0.0,0.0,1.0,1.0,0.0,0.0,0.0,3.0,0.0,0.0,1.0,0.0,1.0,1.0,0.0,0.0,0.0,4.0,1.0,0.0,0.0,0.0,2.0,1.0,0.0,0.0,0.0,2.0,1.0,0.0,0.0,0.0,1.0,0.0,0.0,0.0,1.0,2.0,1.0,0.0,0.0,0.0,3.0,1.0,0.0,0.0,0.0,4.0,0.0,0.0,1.0,0.0,1.0,0.0,0.0,0.0,1.0,2.0,1.0,0.0,0.0,0.0,30.0,6.0,5.0,3.0,2.0,16.0,37.5, 31.25 ,18.75, 12.50 ,31.25
2,11,59,01/06/2015,09:30:00,2,10,2,1,71.0,30.0,56.25,1,2,2,11.0,38.0,14,2.0,14.0,33.0,45.0,56.0,70.0,84.0,96.0,108.0,118.0,124.0,11.0,38.0,3.0,7.0,35.0,1.0,11.0,34.0,1.0,14.0,33.0,2.0,17.0,31.0,1.0,16.0,30.0,2.0,11.0,28.0,1.0,17.0,27.0,1.0,17.0,26.0,0.0,19.0,45.0,2.0,85.0,96.0,81.0,68.0,88.0,85.0,81.0,95.0,81.0,95.0,85.0,94.0,81.0,96.0,98.0,85.0,41.0,87.0,58.0,63.0,85.0,81.0,95.0,81.0,85.0,85.0,91.0,69.0,91.0,63.0,1.0,7.0,8.0,5.0,3.0,9.0,6.0,5.0,4.0,5.0,5.0,8.0,6.0,2.0,7.0,,84.0,70.0,90.0,45.0,78.0,22.0,52.0,86.0,93.0,38.0,53.0,48.0,93.0,73.0,30.0,27.0,22.0,24.0,31.0,41.0,31.0,90.0,61.0,75.0,33.0,8.0,28.0,22.0,40.0,38.0,95.0,94.0,29.0,8.0,94.0,39.0,49.0,11.0,41.0,49.0,75.0,99.0,57.0,52.0,77.0,88.0,48.0,95.0,99.0,40.0,59.0,58.0,68.0,5.0,44.0,73.0,42.0,57.0,85.0,56.0,52.0,39.0,82.0,32.0,47.0,58.0,77.0,32.0,76.0,48.0,57.0,42.0,34.0,24.0,50.0,51.0,30.0,112.0,85.0,116.0,117.0,146.0,115.0,101.0,132.0,92.0,97.0,104.0,114.0,79.0,102.0,121.0,81.0,84.0,117.0,119.0,138.0,156.0,174.0,73.0,67.0,85.0,1.0,1.0,2.0,1.0,1.0,1.0,1.0,1.0,2.0,2.0,1.0,2.0,2.0,2.0,1.0,2.0,2.0,2.0,1.0,1.0,1.0,1.0,2.0,1.0,2.0,-146.0,62.0,53.0,,,1.0,2.0,1.0,5.0,5.0,4.0,1.0,4.0,1.0,6.0,0.0,2.0,2.0,4.0,1.0,1.0,1.0,5.0,5.0,8.0,10.0,3.0,9.0,7.0,5.0,8.0,8.0,1.0,5.0,3.0,2,3.0,0.0,1.0,0.0,0.0,4.0,0.0,0.0,0.0,1.0,2.0,0.0,1.0,0.0,0.0,1.0,1.0,0.0,0.0,0.0,1.0,1.0,0.0,0.0,0.0,1.0,1.0,0.0,0.0,0.0,1.0,1.0,0.0,0.0,0.0,3.0,0.0,0.0,0.0,1.0,1.0,0.0,0.0,0.0,1.0,1.0,0.0,0.0,1.0,0.0,2.0,1.0,0.0,0.0,0.0,3.0,0.0,1.0,0.0,0.0,3.0,1.0,0.0,0.0,0.0,4.0,0.0,0.0,1.0,0.0,1.0,0.0,0.0,0.0,1.0,3.0,0.0,1.0,0.0,0.0,14.0,7.0,2.0,5.0,2.0,16.0,43.75, 12.50 ,31.25, 12.50 ,43.75
2,12,60,01/06/2015,09:30:00,2,10,2,1,68.0,38.0,68.75,1,3,3,16.0,37.0,14,2.0,14.0,33.0,45.0,56.0,70.0,84.0,96.0,108.0,118.0,120.0,16.0,37.0,3.0,13.0,34.0,2.0,17.0,32.0,2.0,18.0,30.0,1.0,-7.0,29.0,2.0,16.0,27.0,1.0,18.0,26.0,1.0,18.0,25.0,1.0,15.0,24.0,1.0,19.0,45.0,2.0,85.0,100.0,81.0,63.0,75.0,85.0,81.0,95.0,81.0,93.0,85.0,88.0,94.0,93.0,91.0,85.0,50.0,87.0,68.0,75.0,85.0,81.0,95.0,81.0,93.0,85.0,93.0,56.0,93.0,94.0,1.0,9.0,8.0,4.0,5.0,9.0,6.0,5.0,4.0,7.0,5.0,7.0,8.0,3.0,2.0,,82.0,75.0,90.0,34.0,88.0,19.0,51.0,67.0,93.0,38.0,62.0,53.0,71.0,74.0,11.0,7.0,38.0,24.0,31.0,41.0,31.0,90.0,65.0,75.0,33.0,8.0,22.0,22.0,46.0,25.0,83.0,92.0,44.0,8.0,94.0,13.0,25.0,25.0,33.0,61.0,86.0,68.0,57.0,52.0,77.0,88.0,48.0,90.0,99.0,40.0,59.0,39.0,68.0,19.0,63.0,65.0,41.0,53.0,85.0,56.0,49.0,28.0,63.0,41.0,50.0,79.0,73.0,32.0,76.0,48.0,57.0,42.0,25.0,24.0,50.0,51.0,17.0,112.0,79.0,113.0,102.0,143.0,110.0,101.0,132.0,75.0,78.0,97.0,107.0,72.0,93.0,105.0,81.0,84.0,117.0,119.0,138.0,155.0,174.0,73.0,67.0,61.0,1.0,2.0,1.0,2.0,2.0,2.0,1.0,1.0,1.0,1.0,2.0,1.0,1.0,1.0,2.0,2.0,2.0,2.0,1.0,1.0,2.0,1.0,2.0,1.0,1.0,-72.0,58.0,52.0,,,1.0,2.0,1.0,5.0,5.0,5.0,1.0,4.0,1.0,7.0,0.0,2.0,2.0,4.0,1.0,1.0,3.0,3.0,4.0,4.0,5.0,2.0,9.0,7.0,6.0,8.0,8.0,6.0,6.0,4.0,2,1.0,1.0,0.0,0.0,0.0,1.0,1.0,0.0,0.0,0.0,4.0,0.0,0.0,0.0,1.0,1.0,1.0,0.0,0.0,0.0,1.0,1.0,0.0,0.0,0.0,2.0,0.0,1.0,0.0,0.0,3.0,0.0,0.0,1.0,0.0,1.0,0.0,1.0,0.0,0.0,2.0,1.0,0.0,0.0,0.0,1.0,0.0,0.0,1.0,0.0,1.0,0.0,0.0,0.0,1.0,1.0,0.0,0.0,0.0,1.0,3.0,1.0,0.0,0.0,0.0,3.0,0.0,1.0,0.0,0.0,1.0,0.0,0.0,0.0,1.0,3.0,0.0,1.0,0.0,0.0,17.0,9.0,2.0,4.0,1.0,16.0,56.25, 12.50 ,25.0, 6.25 ,31.25
